running_id,participant_id,code,payoff,tr,PQ1,PQ2,PQ3,PQ4,PQ6,PQ7,PQ8,PQ9,PQ10,IMC,age,gender,education,work_status,comp_skill,forecasting_skill,similar_exp,time_inst,time_total,tinst_ttot,a,b,running_id,page,round,test_round,AI_forecast,human_forecast,selected_forecast,select_human,selected_quant,guidance_followed,pos_dir,large_mag,sort,sort_num,demand,adjustment,value,min_devtomean,dev_to_mean,h_AI_samedev,closer_to_mean,h_closer_tomean,adj_vs_mean,adj_vs_AI,earlier_rounds,later_rounds,directly_after_feedback
1,1,ha284elv,2.54,60,0,0,0,-1,-1,-2,0,1,0,I read the instructions,44,Male,Bachelor,"Working (part-time, full-time, self-employed)",1,4,Not at all,6.616666667,16.56666667,0.399396378,27,21,1,0,a,1,11,17,AI,0,11,1,1,1,D<AI<H,1,10,6,0,1,1,0,1,0,0.6,0.545454545,0,0,0
2,1,ha284elv,2.54,60,0,0,0,-1,-1,-2,0,1,0,I read the instructions,44,Male,Bachelor,"Working (part-time, full-time, self-employed)",1,4,Not at all,6.616666667,16.56666667,0.399396378,27,21,2,0,b,1,15,12,Human,1,12,1,0,0,D<H<AI,2,7,-3,1,2,2,0,1,1,0.3,0.2,0,0,0
3,1,ha284elv,2.54,60,0,0,0,-1,-1,-2,0,1,0,I read the instructions,44,Male,Bachelor,"Working (part-time, full-time, self-employed)",1,4,Not at all,6.616666667,16.56666667,0.399396378,27,21,3,0,c,1,9,11,AI,0,9,1,1,0,AI<D<H,3,12,2,1,1,1,1,0,0,0.2,0.222222222,0,0,0
4,1,ha284elv,2.54,60,0,0,0,-1,-1,-2,0,1,0,I read the instructions,44,Male,Bachelor,"Working (part-time, full-time, self-employed)",1,4,Not at all,6.616666667,16.56666667,0.399396378,27,21,4,0,d,1,17,11,Human,1,11,1,0,1,D<H<AI,2,15,-6,0,1,1,0,1,1,0.6,0.352941176,0,0,0
5,1,ha284elv,2.54,60,0,0,0,-1,-1,-2,0,1,0,I read the instructions,44,Male,Bachelor,"Working (part-time, full-time, self-employed)",1,4,Not at all,6.616666667,16.56666667,0.399396378,27,21,5,0,e,1,10,13,AI,0,10,1,1,0,D=AI<H,4,7,3,0,0,0,0,1,0,0.3,0.3,0,0,0
6,1,ha284elv,2.54,60,0,0,0,-1,-1,-2,0,1,0,I read the instructions,44,Male,Bachelor,"Working (part-time, full-time, self-employed)",1,4,Not at all,6.616666667,16.56666667,0.399396378,27,21,6,0,f,1,17,10,Human,1,10,1,0,1,D=H<AI,5,11,-7,1,0,0,0,1,1,0.7,0.411764706,0,0,0
7,1,ha284elv,2.54,60,0,0,0,-1,-1,-2,0,1,0,I read the instructions,44,Male,Bachelor,"Working (part-time, full-time, self-employed)",1,4,Not at all,6.616666667,16.56666667,0.399396378,27,21,7,0,g,1,12,18,AI,0,12,1,1,1,D<AI<H,1,16,6,1,2,2,0,1,0,0.6,0.5,0,0,0
8,1,ha284elv,2.54,60,0,0,0,-1,-1,-2,0,1,0,I read the instructions,44,Male,Bachelor,"Working (part-time, full-time, self-employed)",1,4,Not at all,6.616666667,16.56666667,0.399396378,27,21,8,0,h,1,10,9,Human,1,9,1,0,0,H<D=AI,6,15,-1,0,0,1,0,0,0,0.1,0.1,0,0,0
9,1,ha284elv,2.54,60,0,0,0,-1,-1,-2,0,1,0,I read the instructions,44,Male,Bachelor,"Working (part-time, full-time, self-employed)",1,4,Not at all,6.616666667,16.56666667,0.399396378,27,21,9,1,1,0,8,4,AI,0,8,0,0,0,H<AI<D,7,5,-4,1,2,2,0,1,0,0.4,0.5,1,0,1
10,1,ha284elv,2.54,60,0,0,0,-1,-1,-2,0,1,0,I read the instructions,44,Male,Bachelor,"Working (part-time, full-time, self-employed)",1,4,Not at all,6.616666667,16.56666667,0.399396378,27,21,10,1,2,0,15,9,Human,1,9,1,0,1,H<D<AI,8,11,-6,1,1,1,0,1,1,0.6,0.4,1,0,0
11,1,ha284elv,2.54,60,0,0,0,-1,-1,-2,0,1,0,I read the instructions,44,Male,Bachelor,"Working (part-time, full-time, self-employed)",1,4,Not at all,6.616666667,16.56666667,0.399396378,27,21,11,1,3,0,7,10,Human,1,10,0,1,0,AI<D=H,9,8,3,0,0,0,0,1,1,0.3,0.428571429,1,0,0
12,1,ha284elv,2.54,60,0,0,0,-1,-1,-2,0,1,0,I read the instructions,44,Male,Bachelor,"Working (part-time, full-time, self-employed)",1,4,Not at all,6.616666667,16.56666667,0.399396378,27,21,12,1,4,0,14,24,AI,0,14,1,1,1,D<AI<H,1,15,10,0,4,4,0,1,0,1,0.714285714,1,0,0
13,1,ha284elv,2.54,60,0,0,0,-1,-1,-2,0,1,0,I read the instructions,44,Male,Bachelor,"Working (part-time, full-time, self-employed)",1,4,Not at all,6.616666667,16.56666667,0.399396378,27,21,13,1,5,0,7,4,AI,0,7,0,0,0,H<AI<D,7,6,-3,0,3,3,0,1,0,0.3,0.428571429,1,0,0
14,1,ha284elv,2.54,60,0,0,0,-1,-1,-2,0,1,0,I read the instructions,44,Male,Bachelor,"Working (part-time, full-time, self-employed)",1,4,Not at all,6.616666667,16.56666667,0.399396378,27,21,14,1,6,0,13,19,AI,0,13,1,1,1,D<AI<H,1,5,6,0,3,3,0,1,0,0.6,0.461538462,1,0,0
15,1,ha284elv,2.54,60,0,0,0,-1,-1,-2,0,1,0,I read the instructions,44,Male,Bachelor,"Working (part-time, full-time, self-employed)",1,4,Not at all,6.616666667,16.56666667,0.399396378,27,21,15,1,7,0,6,14,AI,0,6,1,1,1,AI<D<H,3,17,8,1,4,4,1,0,0,0.8,1.333333333,1,0,0
16,1,ha284elv,2.54,60,0,0,0,-1,-1,-2,0,1,0,I read the instructions,44,Male,Bachelor,"Working (part-time, full-time, self-employed)",1,4,Not at all,6.616666667,16.56666667,0.399396378,27,21,16,1,8,0,26,17,Human,1,17,1,0,1,D<H<AI,2,10,-9,1,7,7,0,1,1,0.9,0.346153846,1,0,0
17,1,ha284elv,2.54,60,0,0,0,-1,-1,-2,0,1,0,I read the instructions,44,Male,Bachelor,"Working (part-time, full-time, self-employed)",1,4,Not at all,6.616666667,16.56666667,0.399396378,27,21,17,2,9,0,12,8,Human,1,8,1,0,0,H<D<AI,8,17,-4,0,2,2,1,0,0,0.4,0.333333333,0,0,1
18,1,ha284elv,2.54,60,0,0,0,-1,-1,-2,0,1,0,I read the instructions,44,Male,Bachelor,"Working (part-time, full-time, self-employed)",1,4,Not at all,6.616666667,16.56666667,0.399396378,27,21,18,2,10,0,18,26,AI,0,18,1,1,1,D<AI<H,1,10,8,0,8,8,0,1,0,0.8,0.444444444,0,0,0
19,1,ha284elv,2.54,60,0,0,0,-1,-1,-2,0,1,0,I read the instructions,44,Male,Bachelor,"Working (part-time, full-time, self-employed)",1,4,Not at all,6.616666667,16.56666667,0.399396378,27,21,19,2,11,0,17,14,Human,1,14,1,0,0,D<H<AI,2,10,-3,1,4,4,0,1,1,0.3,0.176470588,0,0,0
20,1,ha284elv,2.54,60,0,0,0,-1,-1,-2,0,1,0,I read the instructions,44,Male,Bachelor,"Working (part-time, full-time, self-employed)",1,4,Not at all,6.616666667,16.56666667,0.399396378,27,21,20,2,12,0,10,8,Human,1,8,1,0,0,H<D=AI,6,4,-2,1,0,2,0,0,0,0.2,0.2,0,0,0
21,1,ha284elv,2.54,60,0,0,0,-1,-1,-2,0,1,0,I read the instructions,44,Male,Bachelor,"Working (part-time, full-time, self-employed)",1,4,Not at all,6.616666667,16.56666667,0.399396378,27,21,21,2,13,0,14,17,AI,0,14,1,1,0,D<AI<H,1,10,3,0,4,4,0,1,0,0.3,0.214285714,0,0,0
22,1,ha284elv,2.54,60,0,0,0,-1,-1,-2,0,1,0,I read the instructions,44,Male,Bachelor,"Working (part-time, full-time, self-employed)",1,4,Not at all,6.616666667,16.56666667,0.399396378,27,21,22,2,14,0,9,16,AI,0,9,1,1,1,AI<D<H,3,6,7,0,1,1,0,1,0,0.7,0.777777778,0,0,0
23,1,ha284elv,2.54,60,0,0,0,-1,-1,-2,0,1,0,I read the instructions,44,Male,Bachelor,"Working (part-time, full-time, self-employed)",1,4,Not at all,6.616666667,16.56666667,0.399396378,27,21,23,2,15,0,14,11,Human,1,11,1,0,0,D<H<AI,2,13,-3,0,1,1,0,1,1,0.3,0.214285714,0,0,0
24,1,ha284elv,2.54,60,0,0,0,-1,-1,-2,0,1,0,I read the instructions,44,Male,Bachelor,"Working (part-time, full-time, self-employed)",1,4,Not at all,6.616666667,16.56666667,0.399396378,27,21,24,2,16,0,4,7,AI,0,4,1,1,0,AI<H<D,10,6,3,1,3,6,0,0,1,0.3,0.75,0,0,0
25,1,ha284elv,2.54,60,0,0,0,-1,-1,-2,0,1,0,I read the instructions,44,Male,Bachelor,"Working (part-time, full-time, self-employed)",1,4,Not at all,6.616666667,16.56666667,0.399396378,27,21,25,3,17,0,13,4,AI,0,13,0,0,1,H<D<AI,8,7,-9,1,3,3,0,1,0,0.9,0.692307692,0,0,1
26,1,ha284elv,2.54,60,0,0,0,-1,-1,-2,0,1,0,I read the instructions,44,Male,Bachelor,"Working (part-time, full-time, self-employed)",1,4,Not at all,6.616666667,16.56666667,0.399396378,27,21,26,3,18,0,5,9,Human,1,9,0,1,0,AI<H<D,10,6,4,0,1,1,0,1,1,0.4,0.8,0,0,0
27,1,ha284elv,2.54,60,0,0,0,-1,-1,-2,0,1,0,I read the instructions,44,Male,Bachelor,"Working (part-time, full-time, self-employed)",1,4,Not at all,6.616666667,16.56666667,0.399396378,27,21,27,3,19,0,8,12,AI,0,8,1,1,0,AI<D<H,3,5,4,0,2,2,1,0,0,0.4,0.5,0,0,0
28,1,ha284elv,2.54,60,0,0,0,-1,-1,-2,0,1,0,I read the instructions,44,Male,Bachelor,"Working (part-time, full-time, self-employed)",1,4,Not at all,6.616666667,16.56666667,0.399396378,27,21,28,3,20,0,14,7,Human,1,7,1,0,1,H<D<AI,8,9,-7,1,3,3,0,1,1,0.7,0.5,0,0,0
29,1,ha284elv,2.54,60,0,0,0,-1,-1,-2,0,1,0,I read the instructions,44,Male,Bachelor,"Working (part-time, full-time, self-employed)",1,4,Not at all,6.616666667,16.56666667,0.399396378,27,21,29,3,21,0,12,21,AI,0,12,1,1,1,D<AI<H,1,10,9,0,2,2,0,1,0,0.9,0.75,0,0,0
30,1,ha284elv,2.54,60,0,0,0,-1,-1,-2,0,1,0,I read the instructions,44,Male,Bachelor,"Working (part-time, full-time, self-employed)",1,4,Not at all,6.616666667,16.56666667,0.399396378,27,21,30,3,22,0,11,8,Human,1,8,1,0,0,H<D<AI,8,12,-3,0,1,2,0,0,0,0.3,0.272727273,0,0,0
31,1,ha284elv,2.54,60,0,0,0,-1,-1,-2,0,1,0,I read the instructions,44,Male,Bachelor,"Working (part-time, full-time, self-employed)",1,4,Not at all,6.616666667,16.56666667,0.399396378,27,21,31,3,23,0,24,17,Human,1,17,1,0,1,D<H<AI,2,14,-7,1,7,7,0,1,1,0.7,0.291666667,0,0,0
32,1,ha284elv,2.54,60,0,0,0,-1,-1,-2,0,1,0,I read the instructions,44,Male,Bachelor,"Working (part-time, full-time, self-employed)",1,4,Not at all,6.616666667,16.56666667,0.399396378,27,21,32,3,24,0,16,3,AI,0,16,0,0,1,H<D<AI,8,5,-13,1,6,6,0,1,0,1.3,0.8125,0,0,0
33,1,ha284elv,2.54,60,0,0,0,-1,-1,-2,0,1,0,I read the instructions,44,Male,Bachelor,"Working (part-time, full-time, self-employed)",1,4,Not at all,6.616666667,16.56666667,0.399396378,27,21,33,4,25,0,10,14,AI,0,10,1,1,0,D=AI<H,4,13,4,1,0,0,0,1,0,0.4,0.4,0,0,1
34,1,ha284elv,2.54,60,0,0,0,-1,-1,-2,0,1,0,I read the instructions,44,Male,Bachelor,"Working (part-time, full-time, self-employed)",1,4,Not at all,6.616666667,16.56666667,0.399396378,27,21,34,4,26,0,10,3,Human,1,3,1,0,1,H<D=AI,6,9,-7,0,0,7,0,0,0,0.7,0.7,0,0,0
35,1,ha284elv,2.54,60,0,0,0,-1,-1,-2,0,1,0,I read the instructions,44,Male,Bachelor,"Working (part-time, full-time, self-employed)",1,4,Not at all,6.616666667,16.56666667,0.399396378,27,21,35,4,27,0,1,9,AI,0,1,1,1,1,AI<H<D,10,10,8,1,1,9,0,0,1,0.8,8,0,0,0
36,1,ha284elv,2.54,60,0,0,0,-1,-1,-2,0,1,0,I read the instructions,44,Male,Bachelor,"Working (part-time, full-time, self-employed)",1,4,Not at all,6.616666667,16.56666667,0.399396378,27,21,36,4,28,0,14,13,Human,1,13,1,0,0,D<H<AI,2,20,-1,0,3,3,0,1,1,0.1,0.071428571,0,0,0
37,1,ha284elv,2.54,60,0,0,0,-1,-1,-2,0,1,0,I read the instructions,44,Male,Bachelor,"Working (part-time, full-time, self-employed)",1,4,Not at all,6.616666667,16.56666667,0.399396378,27,21,37,4,29,0,12,9,Human,1,9,1,0,0,H<D<AI,8,10,-3,1,1,1,0,1,1,0.3,0.25,0,0,0
38,1,ha284elv,2.54,60,0,0,0,-1,-1,-2,0,1,0,I read the instructions,44,Male,Bachelor,"Working (part-time, full-time, self-employed)",1,4,Not at all,6.616666667,16.56666667,0.399396378,27,21,38,4,30,0,14,16,AI,0,14,1,1,0,D<AI<H,1,10,2,0,4,4,0,1,0,0.2,0.142857143,0,0,0
39,1,ha284elv,2.54,60,0,0,0,-1,-1,-2,0,1,0,I read the instructions,44,Male,Bachelor,"Working (part-time, full-time, self-employed)",1,4,Not at all,6.616666667,16.56666667,0.399396378,27,21,39,4,31,0,6,7,AI,0,6,1,1,0,AI<H<D,10,18,1,1,3,4,0,0,1,0.1,0.166666667,0,0,0
40,1,ha284elv,2.54,60,0,0,0,-1,-1,-2,0,1,0,I read the instructions,44,Male,Bachelor,"Working (part-time, full-time, self-employed)",1,4,Not at all,6.616666667,16.56666667,0.399396378,27,21,40,4,32,0,26,20,Human,1,20,1,0,1,D<H<AI,2,10,-6,1,10,10,0,1,1,0.6,0.230769231,0,0,0
41,1,ha284elv,2.54,60,0,0,0,-1,-1,-2,0,1,0,I read the instructions,44,Male,Bachelor,"Working (part-time, full-time, self-employed)",1,4,Not at all,6.616666667,16.56666667,0.399396378,27,21,41,5,33,0,10,12,AI,0,10,1,1,0,D=AI<H,4,19,2,1,0,0,0,1,0,0.2,0.2,0,0,1
42,1,ha284elv,2.54,60,0,0,0,-1,-1,-2,0,1,0,I read the instructions,44,Male,Bachelor,"Working (part-time, full-time, self-employed)",1,4,Not at all,6.616666667,16.56666667,0.399396378,27,21,42,5,34,0,17,15,Human,1,15,1,0,0,D<H<AI,2,19,-2,0,5,5,0,1,1,0.2,0.117647059,0,0,0
43,1,ha284elv,2.54,60,0,0,0,-1,-1,-2,0,1,0,I read the instructions,44,Male,Bachelor,"Working (part-time, full-time, self-employed)",1,4,Not at all,6.616666667,16.56666667,0.399396378,27,21,43,5,35,0,6,2,AI,0,6,0,0,0,H<AI<D,7,10,-4,0,4,4,0,1,0,0.4,0.666666667,0,0,0
44,1,ha284elv,2.54,60,0,0,0,-1,-1,-2,0,1,0,I read the instructions,44,Male,Bachelor,"Working (part-time, full-time, self-employed)",1,4,Not at all,6.616666667,16.56666667,0.399396378,27,21,44,5,36,0,8,15,AI,0,8,1,1,1,AI<D<H,3,7,7,0,2,2,0,1,0,0.7,0.875,0,0,0
45,1,ha284elv,2.54,60,0,0,0,-1,-1,-2,0,1,0,I read the instructions,44,Male,Bachelor,"Working (part-time, full-time, self-employed)",1,4,Not at all,6.616666667,16.56666667,0.399396378,27,21,45,5,37,0,12,23,AI,0,12,1,1,1,D<AI<H,1,13,11,0,2,2,0,1,0,1.1,0.916666667,0,0,0
46,1,ha284elv,2.54,60,0,0,0,-1,-1,-2,0,1,0,I read the instructions,44,Male,Bachelor,"Working (part-time, full-time, self-employed)",1,4,Not at all,6.616666667,16.56666667,0.399396378,27,21,46,5,38,0,19,11,Human,1,11,1,0,1,D<H<AI,2,9,-8,1,1,1,0,1,1,0.8,0.421052632,0,0,0
47,1,ha284elv,2.54,60,0,0,0,-1,-1,-2,0,1,0,I read the instructions,44,Male,Bachelor,"Working (part-time, full-time, self-employed)",1,4,Not at all,6.616666667,16.56666667,0.399396378,27,21,47,5,39,0,8,11,AI,0,8,1,1,0,AI<D<H,3,7,3,0,1,2,0,0,1,0.3,0.375,0,0,0
48,1,ha284elv,2.54,60,0,0,0,-1,-1,-2,0,1,0,I read the instructions,44,Male,Bachelor,"Working (part-time, full-time, self-employed)",1,4,Not at all,6.616666667,16.56666667,0.399396378,27,21,48,5,40,0,13,24,AI,0,13,1,1,1,D<AI<H,1,20,11,1,3,3,0,1,0,1.1,0.846153846,0,0,0
49,1,ha284elv,2.54,60,0,0,0,-1,-1,-2,0,1,0,I read the instructions,44,Male,Bachelor,"Working (part-time, full-time, self-employed)",1,4,Not at all,6.616666667,16.56666667,0.399396378,27,21,49,6,41,0,17,9,Human,1,9,1,0,1,H<D<AI,8,10,-8,1,1,1,0,1,1,0.8,0.470588235,0,1,1
50,1,ha284elv,2.54,60,0,0,0,-1,-1,-2,0,1,0,I read the instructions,44,Male,Bachelor,"Working (part-time, full-time, self-employed)",1,4,Not at all,6.616666667,16.56666667,0.399396378,27,21,50,6,42,0,9,12,AI,0,9,1,1,0,AI<D<H,3,10,3,0,1,1,0,1,0,0.3,0.333333333,0,1,0
51,1,ha284elv,2.54,60,0,0,0,-1,-1,-2,0,1,0,I read the instructions,44,Male,Bachelor,"Working (part-time, full-time, self-employed)",1,4,Not at all,6.616666667,16.56666667,0.399396378,27,21,51,6,43,0,3,6,Human,1,6,0,1,0,AI<H<D,10,10,3,1,4,4,0,1,1,0.3,1,0,1,0
52,1,ha284elv,2.54,60,0,0,0,-1,-1,-2,0,1,0,I read the instructions,44,Male,Bachelor,"Working (part-time, full-time, self-employed)",1,4,Not at all,6.616666667,16.56666667,0.399396378,27,21,52,6,44,0,7,14,AI,0,7,1,1,1,AI<D<H,3,10,7,0,3,3,0,1,0,0.7,1,0,1,0
53,1,ha284elv,2.54,60,0,0,0,-1,-1,-2,0,1,0,I read the instructions,44,Male,Bachelor,"Working (part-time, full-time, self-employed)",1,4,Not at all,6.616666667,16.56666667,0.399396378,27,21,53,6,45,0,20,14,Human,1,14,1,0,1,D<H<AI,2,22,-6,0,4,4,0,1,1,0.6,0.3,0,1,0
54,1,ha284elv,2.54,60,0,0,0,-1,-1,-2,0,1,0,I read the instructions,44,Male,Bachelor,"Working (part-time, full-time, self-employed)",1,4,Not at all,6.616666667,16.56666667,0.399396378,27,21,54,6,46,0,10,6,Human,1,6,1,0,0,H<D=AI,6,11,-4,0,0,4,0,0,0,0.4,0.4,0,1,0
55,1,ha284elv,2.54,60,0,0,0,-1,-1,-2,0,1,0,I read the instructions,44,Male,Bachelor,"Working (part-time, full-time, self-employed)",1,4,Not at all,6.616666667,16.56666667,0.399396378,27,21,55,6,47,0,6,12,AI,0,6,1,1,1,AI<D<H,3,7,6,0,2,4,0,0,1,0.6,1,0,1,0
56,1,ha284elv,2.54,60,0,0,0,-1,-1,-2,0,1,0,I read the instructions,44,Male,Bachelor,"Working (part-time, full-time, self-employed)",1,4,Not at all,6.616666667,16.56666667,0.399396378,27,21,56,6,48,0,12,4,AI,0,12,0,0,1,H<D<AI,8,1,-8,1,2,2,0,1,0,0.8,0.666666667,0,1,0
57,2,8mrzogoj,2.3,70,1,-1,0,0,1,0,0,0,0,I read the instructions,49,Male,High school,"Working (part-time, full-time, self-employed)",1,4,Not at all,8.066666667,17.08333333,0.472195122,20,28,57,0,a,1,11,17,AI,0,11,1,1,1,D<AI<H,1,10,6,0,1,1,0,1,0,0.6,0.545454545,0,0,0
58,2,8mrzogoj,2.3,70,1,-1,0,0,1,0,0,0,0,I read the instructions,49,Male,High school,"Working (part-time, full-time, self-employed)",1,4,Not at all,8.066666667,17.08333333,0.472195122,20,28,58,0,b,1,15,12,Human,1,12,1,0,0,D<H<AI,2,7,-3,1,2,2,0,1,1,0.3,0.2,0,0,0
59,2,8mrzogoj,2.3,70,1,-1,0,0,1,0,0,0,0,I read the instructions,49,Male,High school,"Working (part-time, full-time, self-employed)",1,4,Not at all,8.066666667,17.08333333,0.472195122,20,28,59,0,c,1,9,11,AI,0,9,1,1,0,AI<D<H,3,12,2,1,1,1,1,0,0,0.2,0.222222222,0,0,0
60,2,8mrzogoj,2.3,70,1,-1,0,0,1,0,0,0,0,I read the instructions,49,Male,High school,"Working (part-time, full-time, self-employed)",1,4,Not at all,8.066666667,17.08333333,0.472195122,20,28,60,0,d,1,17,11,Human,1,11,1,0,1,D<H<AI,2,15,-6,0,1,1,0,1,1,0.6,0.352941176,0,0,0
61,2,8mrzogoj,2.3,70,1,-1,0,0,1,0,0,0,0,I read the instructions,49,Male,High school,"Working (part-time, full-time, self-employed)",1,4,Not at all,8.066666667,17.08333333,0.472195122,20,28,61,0,e,1,10,13,AI,0,10,1,1,0,D=AI<H,4,7,3,0,0,0,0,1,0,0.3,0.3,0,0,0
62,2,8mrzogoj,2.3,70,1,-1,0,0,1,0,0,0,0,I read the instructions,49,Male,High school,"Working (part-time, full-time, self-employed)",1,4,Not at all,8.066666667,17.08333333,0.472195122,20,28,62,0,f,1,17,10,Human,1,10,1,0,1,D=H<AI,5,11,-7,1,0,0,0,1,1,0.7,0.411764706,0,0,0
63,2,8mrzogoj,2.3,70,1,-1,0,0,1,0,0,0,0,I read the instructions,49,Male,High school,"Working (part-time, full-time, self-employed)",1,4,Not at all,8.066666667,17.08333333,0.472195122,20,28,63,0,g,1,12,18,AI,0,12,1,1,1,D<AI<H,1,16,6,1,2,2,0,1,0,0.6,0.5,0,0,0
64,2,8mrzogoj,2.3,70,1,-1,0,0,1,0,0,0,0,I read the instructions,49,Male,High school,"Working (part-time, full-time, self-employed)",1,4,Not at all,8.066666667,17.08333333,0.472195122,20,28,64,0,h,1,10,9,Human,1,9,1,0,0,H<D=AI,6,15,-1,0,0,1,0,0,0,0.1,0.1,0,0,0
65,2,8mrzogoj,2.3,70,1,-1,0,0,1,0,0,0,0,I read the instructions,49,Male,High school,"Working (part-time, full-time, self-employed)",1,4,Not at all,8.066666667,17.08333333,0.472195122,20,28,65,1,1,0,8,4,AI,0,8,0,0,0,H<AI<D,7,5,-4,1,2,2,0,1,0,0.4,0.5,1,0,1
66,2,8mrzogoj,2.3,70,1,-1,0,0,1,0,0,0,0,I read the instructions,49,Male,High school,"Working (part-time, full-time, self-employed)",1,4,Not at all,8.066666667,17.08333333,0.472195122,20,28,66,1,2,0,15,9,Human,1,9,1,0,1,H<D<AI,8,11,-6,1,1,1,0,1,1,0.6,0.4,1,0,0
67,2,8mrzogoj,2.3,70,1,-1,0,0,1,0,0,0,0,I read the instructions,49,Male,High school,"Working (part-time, full-time, self-employed)",1,4,Not at all,8.066666667,17.08333333,0.472195122,20,28,67,1,3,0,7,10,Human,1,10,0,1,0,AI<D=H,9,8,3,0,0,0,0,1,1,0.3,0.428571429,1,0,0
68,2,8mrzogoj,2.3,70,1,-1,0,0,1,0,0,0,0,I read the instructions,49,Male,High school,"Working (part-time, full-time, self-employed)",1,4,Not at all,8.066666667,17.08333333,0.472195122,20,28,68,1,4,0,14,24,AI,0,14,1,1,1,D<AI<H,1,15,10,0,4,4,0,1,0,1,0.714285714,1,0,0
69,2,8mrzogoj,2.3,70,1,-1,0,0,1,0,0,0,0,I read the instructions,49,Male,High school,"Working (part-time, full-time, self-employed)",1,4,Not at all,8.066666667,17.08333333,0.472195122,20,28,69,1,5,0,7,4,AI,0,7,0,0,0,H<AI<D,7,6,-3,0,3,3,0,1,0,0.3,0.428571429,1,0,0
70,2,8mrzogoj,2.3,70,1,-1,0,0,1,0,0,0,0,I read the instructions,49,Male,High school,"Working (part-time, full-time, self-employed)",1,4,Not at all,8.066666667,17.08333333,0.472195122,20,28,70,1,6,0,13,19,AI,0,13,1,1,1,D<AI<H,1,5,6,0,3,3,0,1,0,0.6,0.461538462,1,0,0
71,2,8mrzogoj,2.3,70,1,-1,0,0,1,0,0,0,0,I read the instructions,49,Male,High school,"Working (part-time, full-time, self-employed)",1,4,Not at all,8.066666667,17.08333333,0.472195122,20,28,71,1,7,0,6,14,AI,0,6,1,1,1,AI<D<H,3,17,8,1,4,4,1,0,0,0.8,1.333333333,1,0,0
72,2,8mrzogoj,2.3,70,1,-1,0,0,1,0,0,0,0,I read the instructions,49,Male,High school,"Working (part-time, full-time, self-employed)",1,4,Not at all,8.066666667,17.08333333,0.472195122,20,28,72,1,8,0,26,17,Human,1,17,1,0,1,D<H<AI,2,10,-9,1,7,7,0,1,1,0.9,0.346153846,1,0,0
73,2,8mrzogoj,2.3,70,1,-1,0,0,1,0,0,0,0,I read the instructions,49,Male,High school,"Working (part-time, full-time, self-employed)",1,4,Not at all,8.066666667,17.08333333,0.472195122,20,28,73,2,9,0,12,8,Human,1,8,1,0,0,H<D<AI,8,17,-4,0,2,2,1,0,0,0.4,0.333333333,0,0,1
74,2,8mrzogoj,2.3,70,1,-1,0,0,1,0,0,0,0,I read the instructions,49,Male,High school,"Working (part-time, full-time, self-employed)",1,4,Not at all,8.066666667,17.08333333,0.472195122,20,28,74,2,10,0,18,26,AI,0,18,1,1,1,D<AI<H,1,10,8,0,8,8,0,1,0,0.8,0.444444444,0,0,0
75,2,8mrzogoj,2.3,70,1,-1,0,0,1,0,0,0,0,I read the instructions,49,Male,High school,"Working (part-time, full-time, self-employed)",1,4,Not at all,8.066666667,17.08333333,0.472195122,20,28,75,2,11,0,17,14,Human,1,14,1,0,0,D<H<AI,2,10,-3,1,4,4,0,1,1,0.3,0.176470588,0,0,0
76,2,8mrzogoj,2.3,70,1,-1,0,0,1,0,0,0,0,I read the instructions,49,Male,High school,"Working (part-time, full-time, self-employed)",1,4,Not at all,8.066666667,17.08333333,0.472195122,20,28,76,2,12,0,10,8,AI,0,10,0,0,0,H<D=AI,6,4,-2,1,0,0,0,1,0,0.2,0.2,0,0,0
77,2,8mrzogoj,2.3,70,1,-1,0,0,1,0,0,0,0,I read the instructions,49,Male,High school,"Working (part-time, full-time, self-employed)",1,4,Not at all,8.066666667,17.08333333,0.472195122,20,28,77,2,13,0,14,17,AI,0,14,1,1,0,D<AI<H,1,10,3,0,4,4,0,1,0,0.3,0.214285714,0,0,0
78,2,8mrzogoj,2.3,70,1,-1,0,0,1,0,0,0,0,I read the instructions,49,Male,High school,"Working (part-time, full-time, self-employed)",1,4,Not at all,8.066666667,17.08333333,0.472195122,20,28,78,2,14,0,9,16,AI,0,9,1,1,1,AI<D<H,3,6,7,0,1,1,0,1,0,0.7,0.777777778,0,0,0
79,2,8mrzogoj,2.3,70,1,-1,0,0,1,0,0,0,0,I read the instructions,49,Male,High school,"Working (part-time, full-time, self-employed)",1,4,Not at all,8.066666667,17.08333333,0.472195122,20,28,79,2,15,0,14,11,Human,1,11,1,0,0,D<H<AI,2,13,-3,0,1,1,0,1,1,0.3,0.214285714,0,0,0
80,2,8mrzogoj,2.3,70,1,-1,0,0,1,0,0,0,0,I read the instructions,49,Male,High school,"Working (part-time, full-time, self-employed)",1,4,Not at all,8.066666667,17.08333333,0.472195122,20,28,80,2,16,0,4,7,Human,1,7,0,1,0,AI<H<D,10,6,3,1,3,3,0,1,1,0.3,0.75,0,0,0
81,2,8mrzogoj,2.3,70,1,-1,0,0,1,0,0,0,0,I read the instructions,49,Male,High school,"Working (part-time, full-time, self-employed)",1,4,Not at all,8.066666667,17.08333333,0.472195122,20,28,81,3,17,0,13,4,AI,0,13,0,0,1,H<D<AI,8,7,-9,1,3,3,0,1,0,0.9,0.692307692,0,0,1
82,2,8mrzogoj,2.3,70,1,-1,0,0,1,0,0,0,0,I read the instructions,49,Male,High school,"Working (part-time, full-time, self-employed)",1,4,Not at all,8.066666667,17.08333333,0.472195122,20,28,82,3,18,0,5,9,Human,1,9,0,1,0,AI<H<D,10,6,4,0,1,1,0,1,1,0.4,0.8,0,0,0
83,2,8mrzogoj,2.3,70,1,-1,0,0,1,0,0,0,0,I read the instructions,49,Male,High school,"Working (part-time, full-time, self-employed)",1,4,Not at all,8.066666667,17.08333333,0.472195122,20,28,83,3,19,0,8,12,Human,1,12,0,1,0,AI<D<H,3,5,4,0,2,2,1,0,0,0.4,0.5,0,0,0
84,2,8mrzogoj,2.3,70,1,-1,0,0,1,0,0,0,0,I read the instructions,49,Male,High school,"Working (part-time, full-time, self-employed)",1,4,Not at all,8.066666667,17.08333333,0.472195122,20,28,84,3,20,0,14,7,AI,0,14,0,0,1,H<D<AI,8,9,-7,1,3,4,0,0,1,0.7,0.5,0,0,0
85,2,8mrzogoj,2.3,70,1,-1,0,0,1,0,0,0,0,I read the instructions,49,Male,High school,"Working (part-time, full-time, self-employed)",1,4,Not at all,8.066666667,17.08333333,0.472195122,20,28,85,3,21,0,12,21,AI,0,12,1,1,1,D<AI<H,1,10,9,0,2,2,0,1,0,0.9,0.75,0,0,0
86,2,8mrzogoj,2.3,70,1,-1,0,0,1,0,0,0,0,I read the instructions,49,Male,High school,"Working (part-time, full-time, self-employed)",1,4,Not at all,8.066666667,17.08333333,0.472195122,20,28,86,3,22,0,11,8,Human,1,8,1,0,0,H<D<AI,8,12,-3,0,1,2,0,0,0,0.3,0.272727273,0,0,0
87,2,8mrzogoj,2.3,70,1,-1,0,0,1,0,0,0,0,I read the instructions,49,Male,High school,"Working (part-time, full-time, self-employed)",1,4,Not at all,8.066666667,17.08333333,0.472195122,20,28,87,3,23,0,24,17,Human,1,17,1,0,1,D<H<AI,2,14,-7,1,7,7,0,1,1,0.7,0.291666667,0,0,0
88,2,8mrzogoj,2.3,70,1,-1,0,0,1,0,0,0,0,I read the instructions,49,Male,High school,"Working (part-time, full-time, self-employed)",1,4,Not at all,8.066666667,17.08333333,0.472195122,20,28,88,3,24,0,16,3,Human,1,3,1,0,1,H<D<AI,8,5,-13,1,6,7,0,0,0,1.3,0.8125,0,0,0
89,2,8mrzogoj,2.3,70,1,-1,0,0,1,0,0,0,0,I read the instructions,49,Male,High school,"Working (part-time, full-time, self-employed)",1,4,Not at all,8.066666667,17.08333333,0.472195122,20,28,89,4,25,0,10,14,AI,0,10,1,1,0,D=AI<H,4,13,4,1,0,0,0,1,0,0.4,0.4,0,0,1
90,2,8mrzogoj,2.3,70,1,-1,0,0,1,0,0,0,0,I read the instructions,49,Male,High school,"Working (part-time, full-time, self-employed)",1,4,Not at all,8.066666667,17.08333333,0.472195122,20,28,90,4,26,0,10,3,AI,0,10,0,0,1,H<D=AI,6,9,-7,0,0,0,0,1,0,0.7,0.7,0,0,0
91,2,8mrzogoj,2.3,70,1,-1,0,0,1,0,0,0,0,I read the instructions,49,Male,High school,"Working (part-time, full-time, self-employed)",1,4,Not at all,8.066666667,17.08333333,0.472195122,20,28,91,4,27,0,1,9,Human,1,9,0,1,1,AI<H<D,10,10,8,1,1,1,0,1,1,0.8,8,0,0,0
92,2,8mrzogoj,2.3,70,1,-1,0,0,1,0,0,0,0,I read the instructions,49,Male,High school,"Working (part-time, full-time, self-employed)",1,4,Not at all,8.066666667,17.08333333,0.472195122,20,28,92,4,28,0,14,13,Human,1,13,1,0,0,D<H<AI,2,20,-1,0,3,3,0,1,1,0.1,0.071428571,0,0,0
93,2,8mrzogoj,2.3,70,1,-1,0,0,1,0,0,0,0,I read the instructions,49,Male,High school,"Working (part-time, full-time, self-employed)",1,4,Not at all,8.066666667,17.08333333,0.472195122,20,28,93,4,29,0,12,9,Human,1,9,1,0,0,H<D<AI,8,10,-3,1,1,1,0,1,1,0.3,0.25,0,0,0
94,2,8mrzogoj,2.3,70,1,-1,0,0,1,0,0,0,0,I read the instructions,49,Male,High school,"Working (part-time, full-time, self-employed)",1,4,Not at all,8.066666667,17.08333333,0.472195122,20,28,94,4,30,0,14,16,Human,1,16,0,1,0,D<AI<H,1,10,2,0,4,6,0,0,0,0.2,0.142857143,0,0,0
95,2,8mrzogoj,2.3,70,1,-1,0,0,1,0,0,0,0,I read the instructions,49,Male,High school,"Working (part-time, full-time, self-employed)",1,4,Not at all,8.066666667,17.08333333,0.472195122,20,28,95,4,31,0,6,7,Human,1,7,0,1,0,AI<H<D,10,18,1,1,3,3,0,1,1,0.1,0.166666667,0,0,0
96,2,8mrzogoj,2.3,70,1,-1,0,0,1,0,0,0,0,I read the instructions,49,Male,High school,"Working (part-time, full-time, self-employed)",1,4,Not at all,8.066666667,17.08333333,0.472195122,20,28,96,4,32,0,26,20,Human,1,20,1,0,1,D<H<AI,2,10,-6,1,10,10,0,1,1,0.6,0.230769231,0,0,0
97,2,8mrzogoj,2.3,70,1,-1,0,0,1,0,0,0,0,I read the instructions,49,Male,High school,"Working (part-time, full-time, self-employed)",1,4,Not at all,8.066666667,17.08333333,0.472195122,20,28,97,5,33,0,10,12,AI,0,10,1,1,0,D=AI<H,4,19,2,1,0,0,0,1,0,0.2,0.2,0,0,1
98,2,8mrzogoj,2.3,70,1,-1,0,0,1,0,0,0,0,I read the instructions,49,Male,High school,"Working (part-time, full-time, self-employed)",1,4,Not at all,8.066666667,17.08333333,0.472195122,20,28,98,5,34,0,17,15,Human,1,15,1,0,0,D<H<AI,2,19,-2,0,5,5,0,1,1,0.2,0.117647059,0,0,0
99,2,8mrzogoj,2.3,70,1,-1,0,0,1,0,0,0,0,I read the instructions,49,Male,High school,"Working (part-time, full-time, self-employed)",1,4,Not at all,8.066666667,17.08333333,0.472195122,20,28,99,5,35,0,6,2,AI,0,6,0,0,0,H<AI<D,7,10,-4,0,4,4,0,1,0,0.4,0.666666667,0,0,0
100,2,8mrzogoj,2.3,70,1,-1,0,0,1,0,0,0,0,I read the instructions,49,Male,High school,"Working (part-time, full-time, self-employed)",1,4,Not at all,8.066666667,17.08333333,0.472195122,20,28,100,5,36,0,8,15,Human,1,15,0,1,1,AI<D<H,3,7,7,0,2,5,0,0,0,0.7,0.875,0,0,0
101,2,8mrzogoj,2.3,70,1,-1,0,0,1,0,0,0,0,I read the instructions,49,Male,High school,"Working (part-time, full-time, self-employed)",1,4,Not at all,8.066666667,17.08333333,0.472195122,20,28,101,5,37,0,12,23,Human,1,23,0,1,1,D<AI<H,1,13,11,0,2,13,0,0,0,1.1,0.916666667,0,0,0
102,2,8mrzogoj,2.3,70,1,-1,0,0,1,0,0,0,0,I read the instructions,49,Male,High school,"Working (part-time, full-time, self-employed)",1,4,Not at all,8.066666667,17.08333333,0.472195122,20,28,102,5,38,0,19,11,AI,0,19,0,0,1,D<H<AI,2,9,-8,1,1,9,0,0,1,0.8,0.421052632,0,0,0
103,2,8mrzogoj,2.3,70,1,-1,0,0,1,0,0,0,0,I read the instructions,49,Male,High school,"Working (part-time, full-time, self-employed)",1,4,Not at all,8.066666667,17.08333333,0.472195122,20,28,103,5,39,0,8,11,Human,1,11,0,1,0,AI<D<H,3,7,3,0,1,1,0,1,1,0.3,0.375,0,0,0
104,2,8mrzogoj,2.3,70,1,-1,0,0,1,0,0,0,0,I read the instructions,49,Male,High school,"Working (part-time, full-time, self-employed)",1,4,Not at all,8.066666667,17.08333333,0.472195122,20,28,104,5,40,0,13,24,Human,1,24,0,1,1,D<AI<H,1,20,11,1,3,14,0,0,0,1.1,0.846153846,0,0,0
105,2,8mrzogoj,2.3,70,1,-1,0,0,1,0,0,0,0,I read the instructions,49,Male,High school,"Working (part-time, full-time, self-employed)",1,4,Not at all,8.066666667,17.08333333,0.472195122,20,28,105,6,41,0,17,9,Human,1,9,1,0,1,H<D<AI,8,10,-8,1,1,1,0,1,1,0.8,0.470588235,0,1,1
106,2,8mrzogoj,2.3,70,1,-1,0,0,1,0,0,0,0,I read the instructions,49,Male,High school,"Working (part-time, full-time, self-employed)",1,4,Not at all,8.066666667,17.08333333,0.472195122,20,28,106,6,42,0,9,12,AI,0,9,1,1,0,AI<D<H,3,10,3,0,1,1,0,1,0,0.3,0.333333333,0,1,0
107,2,8mrzogoj,2.3,70,1,-1,0,0,1,0,0,0,0,I read the instructions,49,Male,High school,"Working (part-time, full-time, self-employed)",1,4,Not at all,8.066666667,17.08333333,0.472195122,20,28,107,6,43,0,3,6,Human,1,6,0,1,0,AI<H<D,10,10,3,1,4,4,0,1,1,0.3,1,0,1,0
108,2,8mrzogoj,2.3,70,1,-1,0,0,1,0,0,0,0,I read the instructions,49,Male,High school,"Working (part-time, full-time, self-employed)",1,4,Not at all,8.066666667,17.08333333,0.472195122,20,28,108,6,44,0,7,14,Human,1,14,0,1,1,AI<D<H,3,10,7,0,3,4,0,0,0,0.7,1,0,1,0
109,2,8mrzogoj,2.3,70,1,-1,0,0,1,0,0,0,0,I read the instructions,49,Male,High school,"Working (part-time, full-time, self-employed)",1,4,Not at all,8.066666667,17.08333333,0.472195122,20,28,109,6,45,0,20,14,Human,1,14,1,0,1,D<H<AI,2,22,-6,0,4,4,0,1,1,0.6,0.3,0,1,0
110,2,8mrzogoj,2.3,70,1,-1,0,0,1,0,0,0,0,I read the instructions,49,Male,High school,"Working (part-time, full-time, self-employed)",1,4,Not at all,8.066666667,17.08333333,0.472195122,20,28,110,6,46,0,10,6,AI,0,10,0,0,0,H<D=AI,6,11,-4,0,0,0,0,1,0,0.4,0.4,0,1,0
111,2,8mrzogoj,2.3,70,1,-1,0,0,1,0,0,0,0,I read the instructions,49,Male,High school,"Working (part-time, full-time, self-employed)",1,4,Not at all,8.066666667,17.08333333,0.472195122,20,28,111,6,47,0,6,12,Human,1,12,0,1,1,AI<D<H,3,7,6,0,2,2,0,1,1,0.6,1,0,1,0
112,2,8mrzogoj,2.3,70,1,-1,0,0,1,0,0,0,0,I read the instructions,49,Male,High school,"Working (part-time, full-time, self-employed)",1,4,Not at all,8.066666667,17.08333333,0.472195122,20,28,112,6,48,0,12,4,AI,0,12,0,0,1,H<D<AI,8,1,-8,1,2,2,0,1,0,0.8,0.666666667,0,1,0
113,3,mrczax12,3.14,60,0,1,0,1,2,1,2,-1,2,I read the instructions,25,Female,Bachelor,"Working (part-time, full-time, self-employed)",4,3,Not at all,10.51666667,21.93333333,0.479483283,26,22,113,0,a,1,11,17,AI,0,11,1,1,1,D<AI<H,1,10,6,0,1,1,0,1,0,0.6,0.545454545,0,0,0
114,3,mrczax12,3.14,60,0,1,0,1,2,1,2,-1,2,I read the instructions,25,Female,Bachelor,"Working (part-time, full-time, self-employed)",4,3,Not at all,10.51666667,21.93333333,0.479483283,26,22,114,0,b,1,15,12,Human,1,12,1,0,0,D<H<AI,2,7,-3,1,2,2,0,1,1,0.3,0.2,0,0,0
115,3,mrczax12,3.14,60,0,1,0,1,2,1,2,-1,2,I read the instructions,25,Female,Bachelor,"Working (part-time, full-time, self-employed)",4,3,Not at all,10.51666667,21.93333333,0.479483283,26,22,115,0,c,1,9,11,AI,0,9,1,1,0,AI<D<H,3,12,2,1,1,1,1,0,0,0.2,0.222222222,0,0,0
116,3,mrczax12,3.14,60,0,1,0,1,2,1,2,-1,2,I read the instructions,25,Female,Bachelor,"Working (part-time, full-time, self-employed)",4,3,Not at all,10.51666667,21.93333333,0.479483283,26,22,116,0,d,1,17,11,Human,1,11,1,0,1,D<H<AI,2,15,-6,0,1,1,0,1,1,0.6,0.352941176,0,0,0
117,3,mrczax12,3.14,60,0,1,0,1,2,1,2,-1,2,I read the instructions,25,Female,Bachelor,"Working (part-time, full-time, self-employed)",4,3,Not at all,10.51666667,21.93333333,0.479483283,26,22,117,0,e,1,10,13,AI,0,10,1,1,0,D=AI<H,4,7,3,0,0,0,0,1,0,0.3,0.3,0,0,0
118,3,mrczax12,3.14,60,0,1,0,1,2,1,2,-1,2,I read the instructions,25,Female,Bachelor,"Working (part-time, full-time, self-employed)",4,3,Not at all,10.51666667,21.93333333,0.479483283,26,22,118,0,f,1,17,10,Human,1,10,1,0,1,D=H<AI,5,11,-7,1,0,0,0,1,1,0.7,0.411764706,0,0,0
119,3,mrczax12,3.14,60,0,1,0,1,2,1,2,-1,2,I read the instructions,25,Female,Bachelor,"Working (part-time, full-time, self-employed)",4,3,Not at all,10.51666667,21.93333333,0.479483283,26,22,119,0,g,1,12,18,AI,0,12,1,1,1,D<AI<H,1,16,6,1,2,2,0,1,0,0.6,0.5,0,0,0
120,3,mrczax12,3.14,60,0,1,0,1,2,1,2,-1,2,I read the instructions,25,Female,Bachelor,"Working (part-time, full-time, self-employed)",4,3,Not at all,10.51666667,21.93333333,0.479483283,26,22,120,0,h,1,10,9,Human,1,9,1,0,0,H<D=AI,6,15,-1,0,0,1,0,0,0,0.1,0.1,0,0,0
121,3,mrczax12,3.14,60,0,1,0,1,2,1,2,-1,2,I read the instructions,25,Female,Bachelor,"Working (part-time, full-time, self-employed)",4,3,Not at all,10.51666667,21.93333333,0.479483283,26,22,121,1,1,0,8,4,Human,1,4,1,0,0,H<AI<D,7,5,-4,1,2,6,0,0,0,0.4,0.5,1,0,1
122,3,mrczax12,3.14,60,0,1,0,1,2,1,2,-1,2,I read the instructions,25,Female,Bachelor,"Working (part-time, full-time, self-employed)",4,3,Not at all,10.51666667,21.93333333,0.479483283,26,22,122,1,2,0,15,9,Human,1,9,1,0,1,H<D<AI,8,11,-6,1,1,1,0,1,1,0.6,0.4,1,0,0
123,3,mrczax12,3.14,60,0,1,0,1,2,1,2,-1,2,I read the instructions,25,Female,Bachelor,"Working (part-time, full-time, self-employed)",4,3,Not at all,10.51666667,21.93333333,0.479483283,26,22,123,1,3,0,7,10,Human,1,10,0,1,0,AI<D=H,9,8,3,0,0,0,0,1,1,0.3,0.428571429,1,0,0
124,3,mrczax12,3.14,60,0,1,0,1,2,1,2,-1,2,I read the instructions,25,Female,Bachelor,"Working (part-time, full-time, self-employed)",4,3,Not at all,10.51666667,21.93333333,0.479483283,26,22,124,1,4,0,14,24,AI,0,14,1,1,1,D<AI<H,1,15,10,0,4,4,0,1,0,1,0.714285714,1,0,0
125,3,mrczax12,3.14,60,0,1,0,1,2,1,2,-1,2,I read the instructions,25,Female,Bachelor,"Working (part-time, full-time, self-employed)",4,3,Not at all,10.51666667,21.93333333,0.479483283,26,22,125,1,5,0,7,4,AI,0,7,0,0,0,H<AI<D,7,6,-3,0,3,3,0,1,0,0.3,0.428571429,1,0,0
126,3,mrczax12,3.14,60,0,1,0,1,2,1,2,-1,2,I read the instructions,25,Female,Bachelor,"Working (part-time, full-time, self-employed)",4,3,Not at all,10.51666667,21.93333333,0.479483283,26,22,126,1,6,0,13,19,AI,0,13,1,1,1,D<AI<H,1,5,6,0,3,3,0,1,0,0.6,0.461538462,1,0,0
127,3,mrczax12,3.14,60,0,1,0,1,2,1,2,-1,2,I read the instructions,25,Female,Bachelor,"Working (part-time, full-time, self-employed)",4,3,Not at all,10.51666667,21.93333333,0.479483283,26,22,127,1,7,0,6,14,Human,1,14,0,1,1,AI<D<H,3,17,8,1,4,4,1,0,0,0.8,1.333333333,1,0,0
128,3,mrczax12,3.14,60,0,1,0,1,2,1,2,-1,2,I read the instructions,25,Female,Bachelor,"Working (part-time, full-time, self-employed)",4,3,Not at all,10.51666667,21.93333333,0.479483283,26,22,128,1,8,0,26,17,Human,1,17,1,0,1,D<H<AI,2,10,-9,1,7,7,0,1,1,0.9,0.346153846,1,0,0
129,3,mrczax12,3.14,60,0,1,0,1,2,1,2,-1,2,I read the instructions,25,Female,Bachelor,"Working (part-time, full-time, self-employed)",4,3,Not at all,10.51666667,21.93333333,0.479483283,26,22,129,2,9,0,12,8,Human,1,8,1,0,0,H<D<AI,8,17,-4,0,2,2,1,0,0,0.4,0.333333333,0,0,1
130,3,mrczax12,3.14,60,0,1,0,1,2,1,2,-1,2,I read the instructions,25,Female,Bachelor,"Working (part-time, full-time, self-employed)",4,3,Not at all,10.51666667,21.93333333,0.479483283,26,22,130,2,10,0,18,26,AI,0,18,1,1,1,D<AI<H,1,10,8,0,8,8,0,1,0,0.8,0.444444444,0,0,0
131,3,mrczax12,3.14,60,0,1,0,1,2,1,2,-1,2,I read the instructions,25,Female,Bachelor,"Working (part-time, full-time, self-employed)",4,3,Not at all,10.51666667,21.93333333,0.479483283,26,22,131,2,11,0,17,14,Human,1,14,1,0,0,D<H<AI,2,10,-3,1,4,4,0,1,1,0.3,0.176470588,0,0,0
132,3,mrczax12,3.14,60,0,1,0,1,2,1,2,-1,2,I read the instructions,25,Female,Bachelor,"Working (part-time, full-time, self-employed)",4,3,Not at all,10.51666667,21.93333333,0.479483283,26,22,132,2,12,0,10,8,AI,0,10,0,0,0,H<D=AI,6,4,-2,1,0,0,0,1,0,0.2,0.2,0,0,0
133,3,mrczax12,3.14,60,0,1,0,1,2,1,2,-1,2,I read the instructions,25,Female,Bachelor,"Working (part-time, full-time, self-employed)",4,3,Not at all,10.51666667,21.93333333,0.479483283,26,22,133,2,13,0,14,17,AI,0,14,1,1,0,D<AI<H,1,10,3,0,4,4,0,1,0,0.3,0.214285714,0,0,0
134,3,mrczax12,3.14,60,0,1,0,1,2,1,2,-1,2,I read the instructions,25,Female,Bachelor,"Working (part-time, full-time, self-employed)",4,3,Not at all,10.51666667,21.93333333,0.479483283,26,22,134,2,14,0,9,16,AI,0,9,1,1,1,AI<D<H,3,6,7,0,1,1,0,1,0,0.7,0.777777778,0,0,0
135,3,mrczax12,3.14,60,0,1,0,1,2,1,2,-1,2,I read the instructions,25,Female,Bachelor,"Working (part-time, full-time, self-employed)",4,3,Not at all,10.51666667,21.93333333,0.479483283,26,22,135,2,15,0,14,11,Human,1,11,1,0,0,D<H<AI,2,13,-3,0,1,1,0,1,1,0.3,0.214285714,0,0,0
136,3,mrczax12,3.14,60,0,1,0,1,2,1,2,-1,2,I read the instructions,25,Female,Bachelor,"Working (part-time, full-time, self-employed)",4,3,Not at all,10.51666667,21.93333333,0.479483283,26,22,136,2,16,0,4,7,Human,1,7,0,1,0,AI<H<D,10,6,3,1,3,3,0,1,1,0.3,0.75,0,0,0
137,3,mrczax12,3.14,60,0,1,0,1,2,1,2,-1,2,I read the instructions,25,Female,Bachelor,"Working (part-time, full-time, self-employed)",4,3,Not at all,10.51666667,21.93333333,0.479483283,26,22,137,3,17,0,13,4,Human,1,4,1,0,1,H<D<AI,8,7,-9,1,3,6,0,0,0,0.9,0.692307692,0,0,1
138,3,mrczax12,3.14,60,0,1,0,1,2,1,2,-1,2,I read the instructions,25,Female,Bachelor,"Working (part-time, full-time, self-employed)",4,3,Not at all,10.51666667,21.93333333,0.479483283,26,22,138,3,18,0,5,9,AI,0,5,1,1,0,AI<H<D,10,6,4,0,1,5,0,0,1,0.4,0.8,0,0,0
139,3,mrczax12,3.14,60,0,1,0,1,2,1,2,-1,2,I read the instructions,25,Female,Bachelor,"Working (part-time, full-time, self-employed)",4,3,Not at all,10.51666667,21.93333333,0.479483283,26,22,139,3,19,0,8,12,AI,0,8,1,1,0,AI<D<H,3,5,4,0,2,2,1,0,0,0.4,0.5,0,0,0
140,3,mrczax12,3.14,60,0,1,0,1,2,1,2,-1,2,I read the instructions,25,Female,Bachelor,"Working (part-time, full-time, self-employed)",4,3,Not at all,10.51666667,21.93333333,0.479483283,26,22,140,3,20,0,14,7,Human,1,7,1,0,1,H<D<AI,8,9,-7,1,3,3,0,1,1,0.7,0.5,0,0,0
141,3,mrczax12,3.14,60,0,1,0,1,2,1,2,-1,2,I read the instructions,25,Female,Bachelor,"Working (part-time, full-time, self-employed)",4,3,Not at all,10.51666667,21.93333333,0.479483283,26,22,141,3,21,0,12,21,AI,0,12,1,1,1,D<AI<H,1,10,9,0,2,2,0,1,0,0.9,0.75,0,0,0
142,3,mrczax12,3.14,60,0,1,0,1,2,1,2,-1,2,I read the instructions,25,Female,Bachelor,"Working (part-time, full-time, self-employed)",4,3,Not at all,10.51666667,21.93333333,0.479483283,26,22,142,3,22,0,11,8,AI,0,11,0,0,0,H<D<AI,8,12,-3,0,1,1,0,1,0,0.3,0.272727273,0,0,0
143,3,mrczax12,3.14,60,0,1,0,1,2,1,2,-1,2,I read the instructions,25,Female,Bachelor,"Working (part-time, full-time, self-employed)",4,3,Not at all,10.51666667,21.93333333,0.479483283,26,22,143,3,23,0,24,17,Human,1,17,1,0,1,D<H<AI,2,14,-7,1,7,7,0,1,1,0.7,0.291666667,0,0,0
144,3,mrczax12,3.14,60,0,1,0,1,2,1,2,-1,2,I read the instructions,25,Female,Bachelor,"Working (part-time, full-time, self-employed)",4,3,Not at all,10.51666667,21.93333333,0.479483283,26,22,144,3,24,0,16,3,AI,0,16,0,0,1,H<D<AI,8,5,-13,1,6,6,0,1,0,1.3,0.8125,0,0,0
145,3,mrczax12,3.14,60,0,1,0,1,2,1,2,-1,2,I read the instructions,25,Female,Bachelor,"Working (part-time, full-time, self-employed)",4,3,Not at all,10.51666667,21.93333333,0.479483283,26,22,145,4,25,0,10,14,AI,0,10,1,1,0,D=AI<H,4,13,4,1,0,0,0,1,0,0.4,0.4,0,0,1
146,3,mrczax12,3.14,60,0,1,0,1,2,1,2,-1,2,I read the instructions,25,Female,Bachelor,"Working (part-time, full-time, self-employed)",4,3,Not at all,10.51666667,21.93333333,0.479483283,26,22,146,4,26,0,10,3,AI,0,10,0,0,1,H<D=AI,6,9,-7,0,0,0,0,1,0,0.7,0.7,0,0,0
147,3,mrczax12,3.14,60,0,1,0,1,2,1,2,-1,2,I read the instructions,25,Female,Bachelor,"Working (part-time, full-time, self-employed)",4,3,Not at all,10.51666667,21.93333333,0.479483283,26,22,147,4,27,0,1,9,Human,1,9,0,1,1,AI<H<D,10,10,8,1,1,1,0,1,1,0.8,8,0,0,0
148,3,mrczax12,3.14,60,0,1,0,1,2,1,2,-1,2,I read the instructions,25,Female,Bachelor,"Working (part-time, full-time, self-employed)",4,3,Not at all,10.51666667,21.93333333,0.479483283,26,22,148,4,28,0,14,13,Human,1,13,1,0,0,D<H<AI,2,20,-1,0,3,3,0,1,1,0.1,0.071428571,0,0,0
149,3,mrczax12,3.14,60,0,1,0,1,2,1,2,-1,2,I read the instructions,25,Female,Bachelor,"Working (part-time, full-time, self-employed)",4,3,Not at all,10.51666667,21.93333333,0.479483283,26,22,149,4,29,0,12,9,Human,1,9,1,0,0,H<D<AI,8,10,-3,1,1,1,0,1,1,0.3,0.25,0,0,0
150,3,mrczax12,3.14,60,0,1,0,1,2,1,2,-1,2,I read the instructions,25,Female,Bachelor,"Working (part-time, full-time, self-employed)",4,3,Not at all,10.51666667,21.93333333,0.479483283,26,22,150,4,30,0,14,16,AI,0,14,1,1,0,D<AI<H,1,10,2,0,4,4,0,1,0,0.2,0.142857143,0,0,0
151,3,mrczax12,3.14,60,0,1,0,1,2,1,2,-1,2,I read the instructions,25,Female,Bachelor,"Working (part-time, full-time, self-employed)",4,3,Not at all,10.51666667,21.93333333,0.479483283,26,22,151,4,31,0,6,7,AI,0,6,1,1,0,AI<H<D,10,18,1,1,3,4,0,0,1,0.1,0.166666667,0,0,0
152,3,mrczax12,3.14,60,0,1,0,1,2,1,2,-1,2,I read the instructions,25,Female,Bachelor,"Working (part-time, full-time, self-employed)",4,3,Not at all,10.51666667,21.93333333,0.479483283,26,22,152,4,32,0,26,20,Human,1,20,1,0,1,D<H<AI,2,10,-6,1,10,10,0,1,1,0.6,0.230769231,0,0,0
153,3,mrczax12,3.14,60,0,1,0,1,2,1,2,-1,2,I read the instructions,25,Female,Bachelor,"Working (part-time, full-time, self-employed)",4,3,Not at all,10.51666667,21.93333333,0.479483283,26,22,153,5,33,0,10,12,AI,0,10,1,1,0,D=AI<H,4,19,2,1,0,0,0,1,0,0.2,0.2,0,0,1
154,3,mrczax12,3.14,60,0,1,0,1,2,1,2,-1,2,I read the instructions,25,Female,Bachelor,"Working (part-time, full-time, self-employed)",4,3,Not at all,10.51666667,21.93333333,0.479483283,26,22,154,5,34,0,17,15,Human,1,15,1,0,0,D<H<AI,2,19,-2,0,5,5,0,1,1,0.2,0.117647059,0,0,0
155,3,mrczax12,3.14,60,0,1,0,1,2,1,2,-1,2,I read the instructions,25,Female,Bachelor,"Working (part-time, full-time, self-employed)",4,3,Not at all,10.51666667,21.93333333,0.479483283,26,22,155,5,35,0,6,2,AI,0,6,0,0,0,H<AI<D,7,10,-4,0,4,4,0,1,0,0.4,0.666666667,0,0,0
156,3,mrczax12,3.14,60,0,1,0,1,2,1,2,-1,2,I read the instructions,25,Female,Bachelor,"Working (part-time, full-time, self-employed)",4,3,Not at all,10.51666667,21.93333333,0.479483283,26,22,156,5,36,0,8,15,AI,0,8,1,1,1,AI<D<H,3,7,7,0,2,2,0,1,0,0.7,0.875,0,0,0
157,3,mrczax12,3.14,60,0,1,0,1,2,1,2,-1,2,I read the instructions,25,Female,Bachelor,"Working (part-time, full-time, self-employed)",4,3,Not at all,10.51666667,21.93333333,0.479483283,26,22,157,5,37,0,12,23,AI,0,12,1,1,1,D<AI<H,1,13,11,0,2,2,0,1,0,1.1,0.916666667,0,0,0
158,3,mrczax12,3.14,60,0,1,0,1,2,1,2,-1,2,I read the instructions,25,Female,Bachelor,"Working (part-time, full-time, self-employed)",4,3,Not at all,10.51666667,21.93333333,0.479483283,26,22,158,5,38,0,19,11,Human,1,11,1,0,1,D<H<AI,2,9,-8,1,1,1,0,1,1,0.8,0.421052632,0,0,0
159,3,mrczax12,3.14,60,0,1,0,1,2,1,2,-1,2,I read the instructions,25,Female,Bachelor,"Working (part-time, full-time, self-employed)",4,3,Not at all,10.51666667,21.93333333,0.479483283,26,22,159,5,39,0,8,11,AI,0,8,1,1,0,AI<D<H,3,7,3,0,1,2,0,0,1,0.3,0.375,0,0,0
160,3,mrczax12,3.14,60,0,1,0,1,2,1,2,-1,2,I read the instructions,25,Female,Bachelor,"Working (part-time, full-time, self-employed)",4,3,Not at all,10.51666667,21.93333333,0.479483283,26,22,160,5,40,0,13,24,AI,0,13,1,1,1,D<AI<H,1,20,11,1,3,3,0,1,0,1.1,0.846153846,0,0,0
161,3,mrczax12,3.14,60,0,1,0,1,2,1,2,-1,2,I read the instructions,25,Female,Bachelor,"Working (part-time, full-time, self-employed)",4,3,Not at all,10.51666667,21.93333333,0.479483283,26,22,161,6,41,0,17,9,Human,1,9,1,0,1,H<D<AI,8,10,-8,1,1,1,0,1,1,0.8,0.470588235,0,1,1
162,3,mrczax12,3.14,60,0,1,0,1,2,1,2,-1,2,I read the instructions,25,Female,Bachelor,"Working (part-time, full-time, self-employed)",4,3,Not at all,10.51666667,21.93333333,0.479483283,26,22,162,6,42,0,9,12,AI,0,9,1,1,0,AI<D<H,3,10,3,0,1,1,0,1,0,0.3,0.333333333,0,1,0
163,3,mrczax12,3.14,60,0,1,0,1,2,1,2,-1,2,I read the instructions,25,Female,Bachelor,"Working (part-time, full-time, self-employed)",4,3,Not at all,10.51666667,21.93333333,0.479483283,26,22,163,6,43,0,3,6,Human,1,6,0,1,0,AI<H<D,10,10,3,1,4,4,0,1,1,0.3,1,0,1,0
164,3,mrczax12,3.14,60,0,1,0,1,2,1,2,-1,2,I read the instructions,25,Female,Bachelor,"Working (part-time, full-time, self-employed)",4,3,Not at all,10.51666667,21.93333333,0.479483283,26,22,164,6,44,0,7,14,AI,0,7,1,1,1,AI<D<H,3,10,7,0,3,3,0,1,0,0.7,1,0,1,0
165,3,mrczax12,3.14,60,0,1,0,1,2,1,2,-1,2,I read the instructions,25,Female,Bachelor,"Working (part-time, full-time, self-employed)",4,3,Not at all,10.51666667,21.93333333,0.479483283,26,22,165,6,45,0,20,14,Human,1,14,1,0,1,D<H<AI,2,22,-6,0,4,4,0,1,1,0.6,0.3,0,1,0
166,3,mrczax12,3.14,60,0,1,0,1,2,1,2,-1,2,I read the instructions,25,Female,Bachelor,"Working (part-time, full-time, self-employed)",4,3,Not at all,10.51666667,21.93333333,0.479483283,26,22,166,6,46,0,10,6,Human,1,6,1,0,0,H<D=AI,6,11,-4,0,0,4,0,0,0,0.4,0.4,0,1,0
167,3,mrczax12,3.14,60,0,1,0,1,2,1,2,-1,2,I read the instructions,25,Female,Bachelor,"Working (part-time, full-time, self-employed)",4,3,Not at all,10.51666667,21.93333333,0.479483283,26,22,167,6,47,0,6,12,AI,0,6,1,1,1,AI<D<H,3,7,6,0,2,4,0,0,1,0.6,1,0,1,0
168,3,mrczax12,3.14,60,0,1,0,1,2,1,2,-1,2,I read the instructions,25,Female,Bachelor,"Working (part-time, full-time, self-employed)",4,3,Not at all,10.51666667,21.93333333,0.479483283,26,22,168,6,48,0,12,4,AI,0,12,0,0,1,H<D<AI,8,1,-8,1,2,2,0,1,0,0.8,0.666666667,0,1,0
169,4,t5thoik0,2.16,70,0,0,0,-1,0,1,1,-1,1,I read the instructions,50,Female,High school,"Working (part-time, full-time, self-employed)",4,1,Not at all,7.983333333,18.78333333,0.425022183,23,25,169,0,a,1,11,17,AI,0,11,1,1,1,D<AI<H,1,10,6,0,1,1,0,1,0,0.6,0.545454545,0,0,0
170,4,t5thoik0,2.16,70,0,0,0,-1,0,1,1,-1,1,I read the instructions,50,Female,High school,"Working (part-time, full-time, self-employed)",4,1,Not at all,7.983333333,18.78333333,0.425022183,23,25,170,0,b,1,15,12,Human,1,12,1,0,0,D<H<AI,2,7,-3,1,2,2,0,1,1,0.3,0.2,0,0,0
171,4,t5thoik0,2.16,70,0,0,0,-1,0,1,1,-1,1,I read the instructions,50,Female,High school,"Working (part-time, full-time, self-employed)",4,1,Not at all,7.983333333,18.78333333,0.425022183,23,25,171,0,c,1,9,11,AI,0,9,1,1,0,AI<D<H,3,12,2,1,1,1,1,0,0,0.2,0.222222222,0,0,0
172,4,t5thoik0,2.16,70,0,0,0,-1,0,1,1,-1,1,I read the instructions,50,Female,High school,"Working (part-time, full-time, self-employed)",4,1,Not at all,7.983333333,18.78333333,0.425022183,23,25,172,0,d,1,17,11,Human,1,11,1,0,1,D<H<AI,2,15,-6,0,1,1,0,1,1,0.6,0.352941176,0,0,0
173,4,t5thoik0,2.16,70,0,0,0,-1,0,1,1,-1,1,I read the instructions,50,Female,High school,"Working (part-time, full-time, self-employed)",4,1,Not at all,7.983333333,18.78333333,0.425022183,23,25,173,0,e,1,10,13,AI,0,10,1,1,0,D=AI<H,4,7,3,0,0,0,0,1,0,0.3,0.3,0,0,0
174,4,t5thoik0,2.16,70,0,0,0,-1,0,1,1,-1,1,I read the instructions,50,Female,High school,"Working (part-time, full-time, self-employed)",4,1,Not at all,7.983333333,18.78333333,0.425022183,23,25,174,0,f,1,17,10,Human,1,10,1,0,1,D=H<AI,5,11,-7,1,0,0,0,1,1,0.7,0.411764706,0,0,0
175,4,t5thoik0,2.16,70,0,0,0,-1,0,1,1,-1,1,I read the instructions,50,Female,High school,"Working (part-time, full-time, self-employed)",4,1,Not at all,7.983333333,18.78333333,0.425022183,23,25,175,0,g,1,12,18,AI,0,12,1,1,1,D<AI<H,1,16,6,1,2,2,0,1,0,0.6,0.5,0,0,0
176,4,t5thoik0,2.16,70,0,0,0,-1,0,1,1,-1,1,I read the instructions,50,Female,High school,"Working (part-time, full-time, self-employed)",4,1,Not at all,7.983333333,18.78333333,0.425022183,23,25,176,0,h,1,10,9,Human,1,9,1,0,0,H<D=AI,6,15,-1,0,0,1,0,0,0,0.1,0.1,0,0,0
177,4,t5thoik0,2.16,70,0,0,0,-1,0,1,1,-1,1,I read the instructions,50,Female,High school,"Working (part-time, full-time, self-employed)",4,1,Not at all,7.983333333,18.78333333,0.425022183,23,25,177,1,1,0,8,4,AI,0,8,0,0,0,H<AI<D,7,5,-4,1,2,2,0,1,0,0.4,0.5,1,0,1
178,4,t5thoik0,2.16,70,0,0,0,-1,0,1,1,-1,1,I read the instructions,50,Female,High school,"Working (part-time, full-time, self-employed)",4,1,Not at all,7.983333333,18.78333333,0.425022183,23,25,178,1,2,0,15,9,Human,1,9,1,0,1,H<D<AI,8,11,-6,1,1,1,0,1,1,0.6,0.4,1,0,0
179,4,t5thoik0,2.16,70,0,0,0,-1,0,1,1,-1,1,I read the instructions,50,Female,High school,"Working (part-time, full-time, self-employed)",4,1,Not at all,7.983333333,18.78333333,0.425022183,23,25,179,1,3,0,7,10,AI,0,7,1,1,0,AI<D=H,9,8,3,0,0,3,0,0,1,0.3,0.428571429,1,0,0
180,4,t5thoik0,2.16,70,0,0,0,-1,0,1,1,-1,1,I read the instructions,50,Female,High school,"Working (part-time, full-time, self-employed)",4,1,Not at all,7.983333333,18.78333333,0.425022183,23,25,180,1,4,0,14,24,Human,1,24,0,1,1,D<AI<H,1,15,10,0,4,14,0,0,0,1,0.714285714,1,0,0
181,4,t5thoik0,2.16,70,0,0,0,-1,0,1,1,-1,1,I read the instructions,50,Female,High school,"Working (part-time, full-time, self-employed)",4,1,Not at all,7.983333333,18.78333333,0.425022183,23,25,181,1,5,0,7,4,AI,0,7,0,0,0,H<AI<D,7,6,-3,0,3,3,0,1,0,0.3,0.428571429,1,0,0
182,4,t5thoik0,2.16,70,0,0,0,-1,0,1,1,-1,1,I read the instructions,50,Female,High school,"Working (part-time, full-time, self-employed)",4,1,Not at all,7.983333333,18.78333333,0.425022183,23,25,182,1,6,0,13,19,AI,0,13,1,1,1,D<AI<H,1,5,6,0,3,3,0,1,0,0.6,0.461538462,1,0,0
183,4,t5thoik0,2.16,70,0,0,0,-1,0,1,1,-1,1,I read the instructions,50,Female,High school,"Working (part-time, full-time, self-employed)",4,1,Not at all,7.983333333,18.78333333,0.425022183,23,25,183,1,7,0,6,14,Human,1,14,0,1,1,AI<D<H,3,17,8,1,4,4,1,0,0,0.8,1.333333333,1,0,0
184,4,t5thoik0,2.16,70,0,0,0,-1,0,1,1,-1,1,I read the instructions,50,Female,High school,"Working (part-time, full-time, self-employed)",4,1,Not at all,7.983333333,18.78333333,0.425022183,23,25,184,1,8,0,26,17,Human,1,17,1,0,1,D<H<AI,2,10,-9,1,7,7,0,1,1,0.9,0.346153846,1,0,0
185,4,t5thoik0,2.16,70,0,0,0,-1,0,1,1,-1,1,I read the instructions,50,Female,High school,"Working (part-time, full-time, self-employed)",4,1,Not at all,7.983333333,18.78333333,0.425022183,23,25,185,2,9,0,12,8,Human,1,8,1,0,0,H<D<AI,8,17,-4,0,2,2,1,0,0,0.4,0.333333333,0,0,1
186,4,t5thoik0,2.16,70,0,0,0,-1,0,1,1,-1,1,I read the instructions,50,Female,High school,"Working (part-time, full-time, self-employed)",4,1,Not at all,7.983333333,18.78333333,0.425022183,23,25,186,2,10,0,18,26,Human,1,26,0,1,1,D<AI<H,1,10,8,0,8,16,0,0,0,0.8,0.444444444,0,0,0
187,4,t5thoik0,2.16,70,0,0,0,-1,0,1,1,-1,1,I read the instructions,50,Female,High school,"Working (part-time, full-time, self-employed)",4,1,Not at all,7.983333333,18.78333333,0.425022183,23,25,187,2,11,0,17,14,Human,1,14,1,0,0,D<H<AI,2,10,-3,1,4,4,0,1,1,0.3,0.176470588,0,0,0
188,4,t5thoik0,2.16,70,0,0,0,-1,0,1,1,-1,1,I read the instructions,50,Female,High school,"Working (part-time, full-time, self-employed)",4,1,Not at all,7.983333333,18.78333333,0.425022183,23,25,188,2,12,0,10,8,Human,1,8,1,0,0,H<D=AI,6,4,-2,1,0,2,0,0,0,0.2,0.2,0,0,0
189,4,t5thoik0,2.16,70,0,0,0,-1,0,1,1,-1,1,I read the instructions,50,Female,High school,"Working (part-time, full-time, self-employed)",4,1,Not at all,7.983333333,18.78333333,0.425022183,23,25,189,2,13,0,14,17,AI,0,14,1,1,0,D<AI<H,1,10,3,0,4,4,0,1,0,0.3,0.214285714,0,0,0
190,4,t5thoik0,2.16,70,0,0,0,-1,0,1,1,-1,1,I read the instructions,50,Female,High school,"Working (part-time, full-time, self-employed)",4,1,Not at all,7.983333333,18.78333333,0.425022183,23,25,190,2,14,0,9,16,Human,1,16,0,1,1,AI<D<H,3,6,7,0,1,6,0,0,0,0.7,0.777777778,0,0,0
191,4,t5thoik0,2.16,70,0,0,0,-1,0,1,1,-1,1,I read the instructions,50,Female,High school,"Working (part-time, full-time, self-employed)",4,1,Not at all,7.983333333,18.78333333,0.425022183,23,25,191,2,15,0,14,11,Human,1,11,1,0,0,D<H<AI,2,13,-3,0,1,1,0,1,1,0.3,0.214285714,0,0,0
192,4,t5thoik0,2.16,70,0,0,0,-1,0,1,1,-1,1,I read the instructions,50,Female,High school,"Working (part-time, full-time, self-employed)",4,1,Not at all,7.983333333,18.78333333,0.425022183,23,25,192,2,16,0,4,7,AI,0,4,1,1,0,AI<H<D,10,6,3,1,3,6,0,0,1,0.3,0.75,0,0,0
193,4,t5thoik0,2.16,70,0,0,0,-1,0,1,1,-1,1,I read the instructions,50,Female,High school,"Working (part-time, full-time, self-employed)",4,1,Not at all,7.983333333,18.78333333,0.425022183,23,25,193,3,17,0,13,4,Human,1,4,1,0,1,H<D<AI,8,7,-9,1,3,6,0,0,0,0.9,0.692307692,0,0,1
194,4,t5thoik0,2.16,70,0,0,0,-1,0,1,1,-1,1,I read the instructions,50,Female,High school,"Working (part-time, full-time, self-employed)",4,1,Not at all,7.983333333,18.78333333,0.425022183,23,25,194,3,18,0,5,9,AI,0,5,1,1,0,AI<H<D,10,6,4,0,1,5,0,0,1,0.4,0.8,0,0,0
195,4,t5thoik0,2.16,70,0,0,0,-1,0,1,1,-1,1,I read the instructions,50,Female,High school,"Working (part-time, full-time, self-employed)",4,1,Not at all,7.983333333,18.78333333,0.425022183,23,25,195,3,19,0,8,12,AI,0,8,1,1,0,AI<D<H,3,5,4,0,2,2,1,0,0,0.4,0.5,0,0,0
196,4,t5thoik0,2.16,70,0,0,0,-1,0,1,1,-1,1,I read the instructions,50,Female,High school,"Working (part-time, full-time, self-employed)",4,1,Not at all,7.983333333,18.78333333,0.425022183,23,25,196,3,20,0,14,7,Human,1,7,1,0,1,H<D<AI,8,9,-7,1,3,3,0,1,1,0.7,0.5,0,0,0
197,4,t5thoik0,2.16,70,0,0,0,-1,0,1,1,-1,1,I read the instructions,50,Female,High school,"Working (part-time, full-time, self-employed)",4,1,Not at all,7.983333333,18.78333333,0.425022183,23,25,197,3,21,0,12,21,Human,1,21,0,1,1,D<AI<H,1,10,9,0,2,11,0,0,0,0.9,0.75,0,0,0
198,4,t5thoik0,2.16,70,0,0,0,-1,0,1,1,-1,1,I read the instructions,50,Female,High school,"Working (part-time, full-time, self-employed)",4,1,Not at all,7.983333333,18.78333333,0.425022183,23,25,198,3,22,0,11,8,Human,1,8,1,0,0,H<D<AI,8,12,-3,0,1,2,0,0,0,0.3,0.272727273,0,0,0
199,4,t5thoik0,2.16,70,0,0,0,-1,0,1,1,-1,1,I read the instructions,50,Female,High school,"Working (part-time, full-time, self-employed)",4,1,Not at all,7.983333333,18.78333333,0.425022183,23,25,199,3,23,0,24,17,Human,1,17,1,0,1,D<H<AI,2,14,-7,1,7,7,0,1,1,0.7,0.291666667,0,0,0
200,4,t5thoik0,2.16,70,0,0,0,-1,0,1,1,-1,1,I read the instructions,50,Female,High school,"Working (part-time, full-time, self-employed)",4,1,Not at all,7.983333333,18.78333333,0.425022183,23,25,200,3,24,0,16,3,AI,0,16,0,0,1,H<D<AI,8,5,-13,1,6,6,0,1,0,1.3,0.8125,0,0,0
201,4,t5thoik0,2.16,70,0,0,0,-1,0,1,1,-1,1,I read the instructions,50,Female,High school,"Working (part-time, full-time, self-employed)",4,1,Not at all,7.983333333,18.78333333,0.425022183,23,25,201,4,25,0,10,14,AI,0,10,1,1,0,D=AI<H,4,13,4,1,0,0,0,1,0,0.4,0.4,0,0,1
202,4,t5thoik0,2.16,70,0,0,0,-1,0,1,1,-1,1,I read the instructions,50,Female,High school,"Working (part-time, full-time, self-employed)",4,1,Not at all,7.983333333,18.78333333,0.425022183,23,25,202,4,26,0,10,3,AI,0,10,0,0,1,H<D=AI,6,9,-7,0,0,0,0,1,0,0.7,0.7,0,0,0
203,4,t5thoik0,2.16,70,0,0,0,-1,0,1,1,-1,1,I read the instructions,50,Female,High school,"Working (part-time, full-time, self-employed)",4,1,Not at all,7.983333333,18.78333333,0.425022183,23,25,203,4,27,0,1,9,Human,1,9,0,1,1,AI<H<D,10,10,8,1,1,1,0,1,1,0.8,8,0,0,0
204,4,t5thoik0,2.16,70,0,0,0,-1,0,1,1,-1,1,I read the instructions,50,Female,High school,"Working (part-time, full-time, self-employed)",4,1,Not at all,7.983333333,18.78333333,0.425022183,23,25,204,4,28,0,14,13,Human,1,13,1,0,0,D<H<AI,2,20,-1,0,3,3,0,1,1,0.1,0.071428571,0,0,0
205,4,t5thoik0,2.16,70,0,0,0,-1,0,1,1,-1,1,I read the instructions,50,Female,High school,"Working (part-time, full-time, self-employed)",4,1,Not at all,7.983333333,18.78333333,0.425022183,23,25,205,4,29,0,12,9,Human,1,9,1,0,0,H<D<AI,8,10,-3,1,1,1,0,1,1,0.3,0.25,0,0,0
206,4,t5thoik0,2.16,70,0,0,0,-1,0,1,1,-1,1,I read the instructions,50,Female,High school,"Working (part-time, full-time, self-employed)",4,1,Not at all,7.983333333,18.78333333,0.425022183,23,25,206,4,30,0,14,16,AI,0,14,1,1,0,D<AI<H,1,10,2,0,4,4,0,1,0,0.2,0.142857143,0,0,0
207,4,t5thoik0,2.16,70,0,0,0,-1,0,1,1,-1,1,I read the instructions,50,Female,High school,"Working (part-time, full-time, self-employed)",4,1,Not at all,7.983333333,18.78333333,0.425022183,23,25,207,4,31,0,6,7,AI,0,6,1,1,0,AI<H<D,10,18,1,1,3,4,0,0,1,0.1,0.166666667,0,0,0
208,4,t5thoik0,2.16,70,0,0,0,-1,0,1,1,-1,1,I read the instructions,50,Female,High school,"Working (part-time, full-time, self-employed)",4,1,Not at all,7.983333333,18.78333333,0.425022183,23,25,208,4,32,0,26,20,Human,1,20,1,0,1,D<H<AI,2,10,-6,1,10,10,0,1,1,0.6,0.230769231,0,0,0
209,4,t5thoik0,2.16,70,0,0,0,-1,0,1,1,-1,1,I read the instructions,50,Female,High school,"Working (part-time, full-time, self-employed)",4,1,Not at all,7.983333333,18.78333333,0.425022183,23,25,209,5,33,0,10,12,AI,0,10,1,1,0,D=AI<H,4,19,2,1,0,0,0,1,0,0.2,0.2,0,0,1
210,4,t5thoik0,2.16,70,0,0,0,-1,0,1,1,-1,1,I read the instructions,50,Female,High school,"Working (part-time, full-time, self-employed)",4,1,Not at all,7.983333333,18.78333333,0.425022183,23,25,210,5,34,0,17,15,AI,0,17,0,0,0,D<H<AI,2,19,-2,0,5,7,0,0,1,0.2,0.117647059,0,0,0
211,4,t5thoik0,2.16,70,0,0,0,-1,0,1,1,-1,1,I read the instructions,50,Female,High school,"Working (part-time, full-time, self-employed)",4,1,Not at all,7.983333333,18.78333333,0.425022183,23,25,211,5,35,0,6,2,Human,1,2,1,0,0,H<AI<D,7,10,-4,0,4,8,0,0,0,0.4,0.666666667,0,0,0
212,4,t5thoik0,2.16,70,0,0,0,-1,0,1,1,-1,1,I read the instructions,50,Female,High school,"Working (part-time, full-time, self-employed)",4,1,Not at all,7.983333333,18.78333333,0.425022183,23,25,212,5,36,0,8,15,Human,1,15,0,1,1,AI<D<H,3,7,7,0,2,5,0,0,0,0.7,0.875,0,0,0
213,4,t5thoik0,2.16,70,0,0,0,-1,0,1,1,-1,1,I read the instructions,50,Female,High school,"Working (part-time, full-time, self-employed)",4,1,Not at all,7.983333333,18.78333333,0.425022183,23,25,213,5,37,0,12,23,AI,0,12,1,1,1,D<AI<H,1,13,11,0,2,2,0,1,0,1.1,0.916666667,0,0,0
214,4,t5thoik0,2.16,70,0,0,0,-1,0,1,1,-1,1,I read the instructions,50,Female,High school,"Working (part-time, full-time, self-employed)",4,1,Not at all,7.983333333,18.78333333,0.425022183,23,25,214,5,38,0,19,11,AI,0,19,0,0,1,D<H<AI,2,9,-8,1,1,9,0,0,1,0.8,0.421052632,0,0,0
215,4,t5thoik0,2.16,70,0,0,0,-1,0,1,1,-1,1,I read the instructions,50,Female,High school,"Working (part-time, full-time, self-employed)",4,1,Not at all,7.983333333,18.78333333,0.425022183,23,25,215,5,39,0,8,11,AI,0,8,1,1,0,AI<D<H,3,7,3,0,1,2,0,0,1,0.3,0.375,0,0,0
216,4,t5thoik0,2.16,70,0,0,0,-1,0,1,1,-1,1,I read the instructions,50,Female,High school,"Working (part-time, full-time, self-employed)",4,1,Not at all,7.983333333,18.78333333,0.425022183,23,25,216,5,40,0,13,24,Human,1,24,0,1,1,D<AI<H,1,20,11,1,3,14,0,0,0,1.1,0.846153846,0,0,0
217,4,t5thoik0,2.16,70,0,0,0,-1,0,1,1,-1,1,I read the instructions,50,Female,High school,"Working (part-time, full-time, self-employed)",4,1,Not at all,7.983333333,18.78333333,0.425022183,23,25,217,6,41,0,17,9,Human,1,9,1,0,1,H<D<AI,8,10,-8,1,1,1,0,1,1,0.8,0.470588235,0,1,1
218,4,t5thoik0,2.16,70,0,0,0,-1,0,1,1,-1,1,I read the instructions,50,Female,High school,"Working (part-time, full-time, self-employed)",4,1,Not at all,7.983333333,18.78333333,0.425022183,23,25,218,6,42,0,9,12,AI,0,9,1,1,0,AI<D<H,3,10,3,0,1,1,0,1,0,0.3,0.333333333,0,1,0
219,4,t5thoik0,2.16,70,0,0,0,-1,0,1,1,-1,1,I read the instructions,50,Female,High school,"Working (part-time, full-time, self-employed)",4,1,Not at all,7.983333333,18.78333333,0.425022183,23,25,219,6,43,0,3,6,AI,0,3,1,1,0,AI<H<D,10,10,3,1,4,7,0,0,1,0.3,1,0,1,0
220,4,t5thoik0,2.16,70,0,0,0,-1,0,1,1,-1,1,I read the instructions,50,Female,High school,"Working (part-time, full-time, self-employed)",4,1,Not at all,7.983333333,18.78333333,0.425022183,23,25,220,6,44,0,7,14,Human,1,14,0,1,1,AI<D<H,3,10,7,0,3,4,0,0,0,0.7,1,0,1,0
221,4,t5thoik0,2.16,70,0,0,0,-1,0,1,1,-1,1,I read the instructions,50,Female,High school,"Working (part-time, full-time, self-employed)",4,1,Not at all,7.983333333,18.78333333,0.425022183,23,25,221,6,45,0,20,14,Human,1,14,1,0,1,D<H<AI,2,22,-6,0,4,4,0,1,1,0.6,0.3,0,1,0
222,4,t5thoik0,2.16,70,0,0,0,-1,0,1,1,-1,1,I read the instructions,50,Female,High school,"Working (part-time, full-time, self-employed)",4,1,Not at all,7.983333333,18.78333333,0.425022183,23,25,222,6,46,0,10,6,AI,0,10,0,0,0,H<D=AI,6,11,-4,0,0,0,0,1,0,0.4,0.4,0,1,0
223,4,t5thoik0,2.16,70,0,0,0,-1,0,1,1,-1,1,I read the instructions,50,Female,High school,"Working (part-time, full-time, self-employed)",4,1,Not at all,7.983333333,18.78333333,0.425022183,23,25,223,6,47,0,6,12,AI,0,6,1,1,1,AI<D<H,3,7,6,0,2,4,0,0,1,0.6,1,0,1,0
224,4,t5thoik0,2.16,70,0,0,0,-1,0,1,1,-1,1,I read the instructions,50,Female,High school,"Working (part-time, full-time, self-employed)",4,1,Not at all,7.983333333,18.78333333,0.425022183,23,25,224,6,48,0,12,4,AI,0,12,0,0,1,H<D<AI,8,1,-8,1,2,2,0,1,0,0.8,0.666666667,0,1,0
225,5,3rdl92un,2.4,60,0,0,1,1,1,1,1,-1,1,I read the instructions,71,Male,Bachelor,"Working (part-time, full-time, self-employed)",1,4,Not at all,8.483333333,15.75,0.538624339,22,26,225,0,a,1,11,17,AI,0,11,1,1,1,D<AI<H,1,10,6,0,1,1,0,1,0,0.6,0.545454545,0,0,0
226,5,3rdl92un,2.4,60,0,0,1,1,1,1,1,-1,1,I read the instructions,71,Male,Bachelor,"Working (part-time, full-time, self-employed)",1,4,Not at all,8.483333333,15.75,0.538624339,22,26,226,0,b,1,15,12,Human,1,12,1,0,0,D<H<AI,2,7,-3,1,2,2,0,1,1,0.3,0.2,0,0,0
227,5,3rdl92un,2.4,60,0,0,1,1,1,1,1,-1,1,I read the instructions,71,Male,Bachelor,"Working (part-time, full-time, self-employed)",1,4,Not at all,8.483333333,15.75,0.538624339,22,26,227,0,c,1,9,11,AI,0,9,1,1,0,AI<D<H,3,12,2,1,1,1,1,0,0,0.2,0.222222222,0,0,0
228,5,3rdl92un,2.4,60,0,0,1,1,1,1,1,-1,1,I read the instructions,71,Male,Bachelor,"Working (part-time, full-time, self-employed)",1,4,Not at all,8.483333333,15.75,0.538624339,22,26,228,0,d,1,17,11,Human,1,11,1,0,1,D<H<AI,2,15,-6,0,1,1,0,1,1,0.6,0.352941176,0,0,0
229,5,3rdl92un,2.4,60,0,0,1,1,1,1,1,-1,1,I read the instructions,71,Male,Bachelor,"Working (part-time, full-time, self-employed)",1,4,Not at all,8.483333333,15.75,0.538624339,22,26,229,0,e,1,10,13,AI,0,10,1,1,0,D=AI<H,4,7,3,0,0,0,0,1,0,0.3,0.3,0,0,0
230,5,3rdl92un,2.4,60,0,0,1,1,1,1,1,-1,1,I read the instructions,71,Male,Bachelor,"Working (part-time, full-time, self-employed)",1,4,Not at all,8.483333333,15.75,0.538624339,22,26,230,0,f,1,17,10,Human,1,10,1,0,1,D=H<AI,5,11,-7,1,0,0,0,1,1,0.7,0.411764706,0,0,0
231,5,3rdl92un,2.4,60,0,0,1,1,1,1,1,-1,1,I read the instructions,71,Male,Bachelor,"Working (part-time, full-time, self-employed)",1,4,Not at all,8.483333333,15.75,0.538624339,22,26,231,0,g,1,12,18,Human,1,18,0,1,1,D<AI<H,1,16,6,1,2,8,0,0,0,0.6,0.5,0,0,0
232,5,3rdl92un,2.4,60,0,0,1,1,1,1,1,-1,1,I read the instructions,71,Male,Bachelor,"Working (part-time, full-time, self-employed)",1,4,Not at all,8.483333333,15.75,0.538624339,22,26,232,0,h,1,10,9,AI,0,10,0,0,0,H<D=AI,6,15,-1,0,0,0,0,1,0,0.1,0.1,0,0,0
233,5,3rdl92un,2.4,60,0,0,1,1,1,1,1,-1,1,I read the instructions,71,Male,Bachelor,"Working (part-time, full-time, self-employed)",1,4,Not at all,8.483333333,15.75,0.538624339,22,26,233,1,1,0,8,4,AI,0,8,0,0,0,H<AI<D,7,5,-4,1,2,2,0,1,0,0.4,0.5,1,0,1
234,5,3rdl92un,2.4,60,0,0,1,1,1,1,1,-1,1,I read the instructions,71,Male,Bachelor,"Working (part-time, full-time, self-employed)",1,4,Not at all,8.483333333,15.75,0.538624339,22,26,234,1,2,0,15,9,Human,1,9,1,0,1,H<D<AI,8,11,-6,1,1,1,0,1,1,0.6,0.4,1,0,0
235,5,3rdl92un,2.4,60,0,0,1,1,1,1,1,-1,1,I read the instructions,71,Male,Bachelor,"Working (part-time, full-time, self-employed)",1,4,Not at all,8.483333333,15.75,0.538624339,22,26,235,1,3,0,7,10,AI,0,7,1,1,0,AI<D=H,9,8,3,0,0,3,0,0,1,0.3,0.428571429,1,0,0
236,5,3rdl92un,2.4,60,0,0,1,1,1,1,1,-1,1,I read the instructions,71,Male,Bachelor,"Working (part-time, full-time, self-employed)",1,4,Not at all,8.483333333,15.75,0.538624339,22,26,236,1,4,0,14,24,Human,1,24,0,1,1,D<AI<H,1,15,10,0,4,14,0,0,0,1,0.714285714,1,0,0
237,5,3rdl92un,2.4,60,0,0,1,1,1,1,1,-1,1,I read the instructions,71,Male,Bachelor,"Working (part-time, full-time, self-employed)",1,4,Not at all,8.483333333,15.75,0.538624339,22,26,237,1,5,0,7,4,AI,0,7,0,0,0,H<AI<D,7,6,-3,0,3,3,0,1,0,0.3,0.428571429,1,0,0
238,5,3rdl92un,2.4,60,0,0,1,1,1,1,1,-1,1,I read the instructions,71,Male,Bachelor,"Working (part-time, full-time, self-employed)",1,4,Not at all,8.483333333,15.75,0.538624339,22,26,238,1,6,0,13,19,AI,0,13,1,1,1,D<AI<H,1,5,6,0,3,3,0,1,0,0.6,0.461538462,1,0,0
239,5,3rdl92un,2.4,60,0,0,1,1,1,1,1,-1,1,I read the instructions,71,Male,Bachelor,"Working (part-time, full-time, self-employed)",1,4,Not at all,8.483333333,15.75,0.538624339,22,26,239,1,7,0,6,14,Human,1,14,0,1,1,AI<D<H,3,17,8,1,4,4,1,0,0,0.8,1.333333333,1,0,0
240,5,3rdl92un,2.4,60,0,0,1,1,1,1,1,-1,1,I read the instructions,71,Male,Bachelor,"Working (part-time, full-time, self-employed)",1,4,Not at all,8.483333333,15.75,0.538624339,22,26,240,1,8,0,26,17,Human,1,17,1,0,1,D<H<AI,2,10,-9,1,7,7,0,1,1,0.9,0.346153846,1,0,0
241,5,3rdl92un,2.4,60,0,0,1,1,1,1,1,-1,1,I read the instructions,71,Male,Bachelor,"Working (part-time, full-time, self-employed)",1,4,Not at all,8.483333333,15.75,0.538624339,22,26,241,2,9,0,12,8,Human,1,8,1,0,0,H<D<AI,8,17,-4,0,2,2,1,0,0,0.4,0.333333333,0,0,1
242,5,3rdl92un,2.4,60,0,0,1,1,1,1,1,-1,1,I read the instructions,71,Male,Bachelor,"Working (part-time, full-time, self-employed)",1,4,Not at all,8.483333333,15.75,0.538624339,22,26,242,2,10,0,18,26,AI,0,18,1,1,1,D<AI<H,1,10,8,0,8,8,0,1,0,0.8,0.444444444,0,0,0
243,5,3rdl92un,2.4,60,0,0,1,1,1,1,1,-1,1,I read the instructions,71,Male,Bachelor,"Working (part-time, full-time, self-employed)",1,4,Not at all,8.483333333,15.75,0.538624339,22,26,243,2,11,0,17,14,Human,1,14,1,0,0,D<H<AI,2,10,-3,1,4,4,0,1,1,0.3,0.176470588,0,0,0
244,5,3rdl92un,2.4,60,0,0,1,1,1,1,1,-1,1,I read the instructions,71,Male,Bachelor,"Working (part-time, full-time, self-employed)",1,4,Not at all,8.483333333,15.75,0.538624339,22,26,244,2,12,0,10,8,Human,1,8,1,0,0,H<D=AI,6,4,-2,1,0,2,0,0,0,0.2,0.2,0,0,0
245,5,3rdl92un,2.4,60,0,0,1,1,1,1,1,-1,1,I read the instructions,71,Male,Bachelor,"Working (part-time, full-time, self-employed)",1,4,Not at all,8.483333333,15.75,0.538624339,22,26,245,2,13,0,14,17,AI,0,14,1,1,0,D<AI<H,1,10,3,0,4,4,0,1,0,0.3,0.214285714,0,0,0
246,5,3rdl92un,2.4,60,0,0,1,1,1,1,1,-1,1,I read the instructions,71,Male,Bachelor,"Working (part-time, full-time, self-employed)",1,4,Not at all,8.483333333,15.75,0.538624339,22,26,246,2,14,0,9,16,AI,0,9,1,1,1,AI<D<H,3,6,7,0,1,1,0,1,0,0.7,0.777777778,0,0,0
247,5,3rdl92un,2.4,60,0,0,1,1,1,1,1,-1,1,I read the instructions,71,Male,Bachelor,"Working (part-time, full-time, self-employed)",1,4,Not at all,8.483333333,15.75,0.538624339,22,26,247,2,15,0,14,11,Human,1,11,1,0,0,D<H<AI,2,13,-3,0,1,1,0,1,1,0.3,0.214285714,0,0,0
248,5,3rdl92un,2.4,60,0,0,1,1,1,1,1,-1,1,I read the instructions,71,Male,Bachelor,"Working (part-time, full-time, self-employed)",1,4,Not at all,8.483333333,15.75,0.538624339,22,26,248,2,16,0,4,7,Human,1,7,0,1,0,AI<H<D,10,6,3,1,3,3,0,1,1,0.3,0.75,0,0,0
249,5,3rdl92un,2.4,60,0,0,1,1,1,1,1,-1,1,I read the instructions,71,Male,Bachelor,"Working (part-time, full-time, self-employed)",1,4,Not at all,8.483333333,15.75,0.538624339,22,26,249,3,17,0,13,4,AI,0,13,0,0,1,H<D<AI,8,7,-9,1,3,3,0,1,0,0.9,0.692307692,0,0,1
250,5,3rdl92un,2.4,60,0,0,1,1,1,1,1,-1,1,I read the instructions,71,Male,Bachelor,"Working (part-time, full-time, self-employed)",1,4,Not at all,8.483333333,15.75,0.538624339,22,26,250,3,18,0,5,9,Human,1,9,0,1,0,AI<H<D,10,6,4,0,1,1,0,1,1,0.4,0.8,0,0,0
251,5,3rdl92un,2.4,60,0,0,1,1,1,1,1,-1,1,I read the instructions,71,Male,Bachelor,"Working (part-time, full-time, self-employed)",1,4,Not at all,8.483333333,15.75,0.538624339,22,26,251,3,19,0,8,12,Human,1,12,0,1,0,AI<D<H,3,5,4,0,2,2,1,0,0,0.4,0.5,0,0,0
252,5,3rdl92un,2.4,60,0,0,1,1,1,1,1,-1,1,I read the instructions,71,Male,Bachelor,"Working (part-time, full-time, self-employed)",1,4,Not at all,8.483333333,15.75,0.538624339,22,26,252,3,20,0,14,7,AI,0,14,0,0,1,H<D<AI,8,9,-7,1,3,4,0,0,1,0.7,0.5,0,0,0
253,5,3rdl92un,2.4,60,0,0,1,1,1,1,1,-1,1,I read the instructions,71,Male,Bachelor,"Working (part-time, full-time, self-employed)",1,4,Not at all,8.483333333,15.75,0.538624339,22,26,253,3,21,0,12,21,AI,0,12,1,1,1,D<AI<H,1,10,9,0,2,2,0,1,0,0.9,0.75,0,0,0
254,5,3rdl92un,2.4,60,0,0,1,1,1,1,1,-1,1,I read the instructions,71,Male,Bachelor,"Working (part-time, full-time, self-employed)",1,4,Not at all,8.483333333,15.75,0.538624339,22,26,254,3,22,0,11,8,Human,1,8,1,0,0,H<D<AI,8,12,-3,0,1,2,0,0,0,0.3,0.272727273,0,0,0
255,5,3rdl92un,2.4,60,0,0,1,1,1,1,1,-1,1,I read the instructions,71,Male,Bachelor,"Working (part-time, full-time, self-employed)",1,4,Not at all,8.483333333,15.75,0.538624339,22,26,255,3,23,0,24,17,Human,1,17,1,0,1,D<H<AI,2,14,-7,1,7,7,0,1,1,0.7,0.291666667,0,0,0
256,5,3rdl92un,2.4,60,0,0,1,1,1,1,1,-1,1,I read the instructions,71,Male,Bachelor,"Working (part-time, full-time, self-employed)",1,4,Not at all,8.483333333,15.75,0.538624339,22,26,256,3,24,0,16,3,AI,0,16,0,0,1,H<D<AI,8,5,-13,1,6,6,0,1,0,1.3,0.8125,0,0,0
257,5,3rdl92un,2.4,60,0,0,1,1,1,1,1,-1,1,I read the instructions,71,Male,Bachelor,"Working (part-time, full-time, self-employed)",1,4,Not at all,8.483333333,15.75,0.538624339,22,26,257,4,25,0,10,14,Human,1,14,0,1,0,D=AI<H,4,13,4,1,0,4,0,0,0,0.4,0.4,0,0,1
258,5,3rdl92un,2.4,60,0,0,1,1,1,1,1,-1,1,I read the instructions,71,Male,Bachelor,"Working (part-time, full-time, self-employed)",1,4,Not at all,8.483333333,15.75,0.538624339,22,26,258,4,26,0,10,3,AI,0,10,0,0,1,H<D=AI,6,9,-7,0,0,0,0,1,0,0.7,0.7,0,0,0
259,5,3rdl92un,2.4,60,0,0,1,1,1,1,1,-1,1,I read the instructions,71,Male,Bachelor,"Working (part-time, full-time, self-employed)",1,4,Not at all,8.483333333,15.75,0.538624339,22,26,259,4,27,0,1,9,AI,0,1,1,1,1,AI<H<D,10,10,8,1,1,9,0,0,1,0.8,8,0,0,0
260,5,3rdl92un,2.4,60,0,0,1,1,1,1,1,-1,1,I read the instructions,71,Male,Bachelor,"Working (part-time, full-time, self-employed)",1,4,Not at all,8.483333333,15.75,0.538624339,22,26,260,4,28,0,14,13,Human,1,13,1,0,0,D<H<AI,2,20,-1,0,3,3,0,1,1,0.1,0.071428571,0,0,0
261,5,3rdl92un,2.4,60,0,0,1,1,1,1,1,-1,1,I read the instructions,71,Male,Bachelor,"Working (part-time, full-time, self-employed)",1,4,Not at all,8.483333333,15.75,0.538624339,22,26,261,4,29,0,12,9,AI,0,12,0,0,0,H<D<AI,8,10,-3,1,1,2,0,0,1,0.3,0.25,0,0,0
262,5,3rdl92un,2.4,60,0,0,1,1,1,1,1,-1,1,I read the instructions,71,Male,Bachelor,"Working (part-time, full-time, self-employed)",1,4,Not at all,8.483333333,15.75,0.538624339,22,26,262,4,30,0,14,16,Human,1,16,0,1,0,D<AI<H,1,10,2,0,4,6,0,0,0,0.2,0.142857143,0,0,0
263,5,3rdl92un,2.4,60,0,0,1,1,1,1,1,-1,1,I read the instructions,71,Male,Bachelor,"Working (part-time, full-time, self-employed)",1,4,Not at all,8.483333333,15.75,0.538624339,22,26,263,4,31,0,6,7,Human,1,7,0,1,0,AI<H<D,10,18,1,1,3,3,0,1,1,0.1,0.166666667,0,0,0
264,5,3rdl92un,2.4,60,0,0,1,1,1,1,1,-1,1,I read the instructions,71,Male,Bachelor,"Working (part-time, full-time, self-employed)",1,4,Not at all,8.483333333,15.75,0.538624339,22,26,264,4,32,0,26,20,AI,0,26,0,0,1,D<H<AI,2,10,-6,1,10,16,0,0,1,0.6,0.230769231,0,0,0
265,5,3rdl92un,2.4,60,0,0,1,1,1,1,1,-1,1,I read the instructions,71,Male,Bachelor,"Working (part-time, full-time, self-employed)",1,4,Not at all,8.483333333,15.75,0.538624339,22,26,265,5,33,0,10,12,Human,1,12,0,1,0,D=AI<H,4,19,2,1,0,2,0,0,0,0.2,0.2,0,0,1
266,5,3rdl92un,2.4,60,0,0,1,1,1,1,1,-1,1,I read the instructions,71,Male,Bachelor,"Working (part-time, full-time, self-employed)",1,4,Not at all,8.483333333,15.75,0.538624339,22,26,266,5,34,0,17,15,Human,1,15,1,0,0,D<H<AI,2,19,-2,0,5,5,0,1,1,0.2,0.117647059,0,0,0
267,5,3rdl92un,2.4,60,0,0,1,1,1,1,1,-1,1,I read the instructions,71,Male,Bachelor,"Working (part-time, full-time, self-employed)",1,4,Not at all,8.483333333,15.75,0.538624339,22,26,267,5,35,0,6,2,AI,0,6,0,0,0,H<AI<D,7,10,-4,0,4,4,0,1,0,0.4,0.666666667,0,0,0
268,5,3rdl92un,2.4,60,0,0,1,1,1,1,1,-1,1,I read the instructions,71,Male,Bachelor,"Working (part-time, full-time, self-employed)",1,4,Not at all,8.483333333,15.75,0.538624339,22,26,268,5,36,0,8,15,Human,1,15,0,1,1,AI<D<H,3,7,7,0,2,5,0,0,0,0.7,0.875,0,0,0
269,5,3rdl92un,2.4,60,0,0,1,1,1,1,1,-1,1,I read the instructions,71,Male,Bachelor,"Working (part-time, full-time, self-employed)",1,4,Not at all,8.483333333,15.75,0.538624339,22,26,269,5,37,0,12,23,AI,0,12,1,1,1,D<AI<H,1,13,11,0,2,2,0,1,0,1.1,0.916666667,0,0,0
270,5,3rdl92un,2.4,60,0,0,1,1,1,1,1,-1,1,I read the instructions,71,Male,Bachelor,"Working (part-time, full-time, self-employed)",1,4,Not at all,8.483333333,15.75,0.538624339,22,26,270,5,38,0,19,11,Human,1,11,1,0,1,D<H<AI,2,9,-8,1,1,1,0,1,1,0.8,0.421052632,0,0,0
271,5,3rdl92un,2.4,60,0,0,1,1,1,1,1,-1,1,I read the instructions,71,Male,Bachelor,"Working (part-time, full-time, self-employed)",1,4,Not at all,8.483333333,15.75,0.538624339,22,26,271,5,39,0,8,11,Human,1,11,0,1,0,AI<D<H,3,7,3,0,1,1,0,1,1,0.3,0.375,0,0,0
272,5,3rdl92un,2.4,60,0,0,1,1,1,1,1,-1,1,I read the instructions,71,Male,Bachelor,"Working (part-time, full-time, self-employed)",1,4,Not at all,8.483333333,15.75,0.538624339,22,26,272,5,40,0,13,24,AI,0,13,1,1,1,D<AI<H,1,20,11,1,3,3,0,1,0,1.1,0.846153846,0,0,0
273,5,3rdl92un,2.4,60,0,0,1,1,1,1,1,-1,1,I read the instructions,71,Male,Bachelor,"Working (part-time, full-time, self-employed)",1,4,Not at all,8.483333333,15.75,0.538624339,22,26,273,6,41,0,17,9,AI,0,17,0,0,1,H<D<AI,8,10,-8,1,1,7,0,0,1,0.8,0.470588235,0,1,1
274,5,3rdl92un,2.4,60,0,0,1,1,1,1,1,-1,1,I read the instructions,71,Male,Bachelor,"Working (part-time, full-time, self-employed)",1,4,Not at all,8.483333333,15.75,0.538624339,22,26,274,6,42,0,9,12,Human,1,12,0,1,0,AI<D<H,3,10,3,0,1,2,0,0,0,0.3,0.333333333,0,1,0
275,5,3rdl92un,2.4,60,0,0,1,1,1,1,1,-1,1,I read the instructions,71,Male,Bachelor,"Working (part-time, full-time, self-employed)",1,4,Not at all,8.483333333,15.75,0.538624339,22,26,275,6,43,0,3,6,Human,1,6,0,1,0,AI<H<D,10,10,3,1,4,4,0,1,1,0.3,1,0,1,0
276,5,3rdl92un,2.4,60,0,0,1,1,1,1,1,-1,1,I read the instructions,71,Male,Bachelor,"Working (part-time, full-time, self-employed)",1,4,Not at all,8.483333333,15.75,0.538624339,22,26,276,6,44,0,7,14,AI,0,7,1,1,1,AI<D<H,3,10,7,0,3,3,0,1,0,0.7,1,0,1,0
277,5,3rdl92un,2.4,60,0,0,1,1,1,1,1,-1,1,I read the instructions,71,Male,Bachelor,"Working (part-time, full-time, self-employed)",1,4,Not at all,8.483333333,15.75,0.538624339,22,26,277,6,45,0,20,14,AI,0,20,0,0,1,D<H<AI,2,22,-6,0,4,10,0,0,1,0.6,0.3,0,1,0
278,5,3rdl92un,2.4,60,0,0,1,1,1,1,1,-1,1,I read the instructions,71,Male,Bachelor,"Working (part-time, full-time, self-employed)",1,4,Not at all,8.483333333,15.75,0.538624339,22,26,278,6,46,0,10,6,AI,0,10,0,0,0,H<D=AI,6,11,-4,0,0,0,0,1,0,0.4,0.4,0,1,0
279,5,3rdl92un,2.4,60,0,0,1,1,1,1,1,-1,1,I read the instructions,71,Male,Bachelor,"Working (part-time, full-time, self-employed)",1,4,Not at all,8.483333333,15.75,0.538624339,22,26,279,6,47,0,6,12,Human,1,12,0,1,1,AI<D<H,3,7,6,0,2,2,0,1,1,0.6,1,0,1,0
280,5,3rdl92un,2.4,60,0,0,1,1,1,1,1,-1,1,I read the instructions,71,Male,Bachelor,"Working (part-time, full-time, self-employed)",1,4,Not at all,8.483333333,15.75,0.538624339,22,26,280,6,48,0,12,4,Human,1,4,1,0,1,H<D<AI,8,1,-8,1,2,6,0,0,0,0.8,0.666666667,0,1,0
281,6,3rovwpb7,2.1,70,1,1,1,1,1,1,2,1,1,I read the instructions,33,Female,Bachelor,"Working (part-time, full-time, self-employed)",2,2,Only one,4.85,19.08333333,0.254148472,24,24,281,0,a,1,11,17,Human,1,17,0,1,1,D<AI<H,1,10,6,0,1,7,0,0,0,0.6,0.545454545,0,0,0
282,6,3rovwpb7,2.1,70,1,1,1,1,1,1,2,1,1,I read the instructions,33,Female,Bachelor,"Working (part-time, full-time, self-employed)",2,2,Only one,4.85,19.08333333,0.254148472,24,24,282,0,b,1,15,12,AI,0,15,0,0,0,D<H<AI,2,7,-3,1,2,5,0,0,1,0.3,0.2,0,0,0
283,6,3rovwpb7,2.1,70,1,1,1,1,1,1,2,1,1,I read the instructions,33,Female,Bachelor,"Working (part-time, full-time, self-employed)",2,2,Only one,4.85,19.08333333,0.254148472,24,24,283,0,c,1,9,11,AI,0,9,1,1,0,AI<D<H,3,12,2,1,1,1,1,0,0,0.2,0.222222222,0,0,0
284,6,3rovwpb7,2.1,70,1,1,1,1,1,1,2,1,1,I read the instructions,33,Female,Bachelor,"Working (part-time, full-time, self-employed)",2,2,Only one,4.85,19.08333333,0.254148472,24,24,284,0,d,1,17,11,Human,1,11,1,0,1,D<H<AI,2,15,-6,0,1,1,0,1,1,0.6,0.352941176,0,0,0
285,6,3rovwpb7,2.1,70,1,1,1,1,1,1,2,1,1,I read the instructions,33,Female,Bachelor,"Working (part-time, full-time, self-employed)",2,2,Only one,4.85,19.08333333,0.254148472,24,24,285,0,e,1,10,13,Human,1,13,0,1,0,D=AI<H,4,7,3,0,0,3,0,0,0,0.3,0.3,0,0,0
286,6,3rovwpb7,2.1,70,1,1,1,1,1,1,2,1,1,I read the instructions,33,Female,Bachelor,"Working (part-time, full-time, self-employed)",2,2,Only one,4.85,19.08333333,0.254148472,24,24,286,0,f,1,17,10,AI,0,17,0,0,1,D=H<AI,5,11,-7,1,0,7,0,0,1,0.7,0.411764706,0,0,0
287,6,3rovwpb7,2.1,70,1,1,1,1,1,1,2,1,1,I read the instructions,33,Female,Bachelor,"Working (part-time, full-time, self-employed)",2,2,Only one,4.85,19.08333333,0.254148472,24,24,287,0,g,1,12,18,Human,1,18,0,1,1,D<AI<H,1,16,6,1,2,8,0,0,0,0.6,0.5,0,0,0
288,6,3rovwpb7,2.1,70,1,1,1,1,1,1,2,1,1,I read the instructions,33,Female,Bachelor,"Working (part-time, full-time, self-employed)",2,2,Only one,4.85,19.08333333,0.254148472,24,24,288,0,h,1,10,9,AI,0,10,0,0,0,H<D=AI,6,15,-1,0,0,0,0,1,0,0.1,0.1,0,0,0
289,6,3rovwpb7,2.1,70,1,1,1,1,1,1,2,1,1,I read the instructions,33,Female,Bachelor,"Working (part-time, full-time, self-employed)",2,2,Only one,4.85,19.08333333,0.254148472,24,24,289,1,1,0,8,4,AI,0,8,0,0,0,H<AI<D,7,5,-4,1,2,2,0,1,0,0.4,0.5,1,0,1
290,6,3rovwpb7,2.1,70,1,1,1,1,1,1,2,1,1,I read the instructions,33,Female,Bachelor,"Working (part-time, full-time, self-employed)",2,2,Only one,4.85,19.08333333,0.254148472,24,24,290,1,2,0,15,9,AI,0,15,0,0,1,H<D<AI,8,11,-6,1,1,5,0,0,1,0.6,0.4,1,0,0
291,6,3rovwpb7,2.1,70,1,1,1,1,1,1,2,1,1,I read the instructions,33,Female,Bachelor,"Working (part-time, full-time, self-employed)",2,2,Only one,4.85,19.08333333,0.254148472,24,24,291,1,3,0,7,10,Human,1,10,0,1,0,AI<D=H,9,8,3,0,0,0,0,1,1,0.3,0.428571429,1,0,0
292,6,3rovwpb7,2.1,70,1,1,1,1,1,1,2,1,1,I read the instructions,33,Female,Bachelor,"Working (part-time, full-time, self-employed)",2,2,Only one,4.85,19.08333333,0.254148472,24,24,292,1,4,0,14,24,AI,0,14,1,1,1,D<AI<H,1,15,10,0,4,4,0,1,0,1,0.714285714,1,0,0
293,6,3rovwpb7,2.1,70,1,1,1,1,1,1,2,1,1,I read the instructions,33,Female,Bachelor,"Working (part-time, full-time, self-employed)",2,2,Only one,4.85,19.08333333,0.254148472,24,24,293,1,5,0,7,4,Human,1,4,1,0,0,H<AI<D,7,6,-3,0,3,6,0,0,0,0.3,0.428571429,1,0,0
294,6,3rovwpb7,2.1,70,1,1,1,1,1,1,2,1,1,I read the instructions,33,Female,Bachelor,"Working (part-time, full-time, self-employed)",2,2,Only one,4.85,19.08333333,0.254148472,24,24,294,1,6,0,13,19,AI,0,13,1,1,1,D<AI<H,1,5,6,0,3,3,0,1,0,0.6,0.461538462,1,0,0
295,6,3rovwpb7,2.1,70,1,1,1,1,1,1,2,1,1,I read the instructions,33,Female,Bachelor,"Working (part-time, full-time, self-employed)",2,2,Only one,4.85,19.08333333,0.254148472,24,24,295,1,7,0,6,14,Human,1,14,0,1,1,AI<D<H,3,17,8,1,4,4,1,0,0,0.8,1.333333333,1,0,0
296,6,3rovwpb7,2.1,70,1,1,1,1,1,1,2,1,1,I read the instructions,33,Female,Bachelor,"Working (part-time, full-time, self-employed)",2,2,Only one,4.85,19.08333333,0.254148472,24,24,296,1,8,0,26,17,Human,1,17,1,0,1,D<H<AI,2,10,-9,1,7,7,0,1,1,0.9,0.346153846,1,0,0
297,6,3rovwpb7,2.1,70,1,1,1,1,1,1,2,1,1,I read the instructions,33,Female,Bachelor,"Working (part-time, full-time, self-employed)",2,2,Only one,4.85,19.08333333,0.254148472,24,24,297,2,9,0,12,8,Human,1,8,1,0,0,H<D<AI,8,17,-4,0,2,2,1,0,0,0.4,0.333333333,0,0,1
298,6,3rovwpb7,2.1,70,1,1,1,1,1,1,2,1,1,I read the instructions,33,Female,Bachelor,"Working (part-time, full-time, self-employed)",2,2,Only one,4.85,19.08333333,0.254148472,24,24,298,2,10,0,18,26,AI,0,18,1,1,1,D<AI<H,1,10,8,0,8,8,0,1,0,0.8,0.444444444,0,0,0
299,6,3rovwpb7,2.1,70,1,1,1,1,1,1,2,1,1,I read the instructions,33,Female,Bachelor,"Working (part-time, full-time, self-employed)",2,2,Only one,4.85,19.08333333,0.254148472,24,24,299,2,11,0,17,14,Human,1,14,1,0,0,D<H<AI,2,10,-3,1,4,4,0,1,1,0.3,0.176470588,0,0,0
300,6,3rovwpb7,2.1,70,1,1,1,1,1,1,2,1,1,I read the instructions,33,Female,Bachelor,"Working (part-time, full-time, self-employed)",2,2,Only one,4.85,19.08333333,0.254148472,24,24,300,2,12,0,10,8,AI,0,10,0,0,0,H<D=AI,6,4,-2,1,0,0,0,1,0,0.2,0.2,0,0,0
301,6,3rovwpb7,2.1,70,1,1,1,1,1,1,2,1,1,I read the instructions,33,Female,Bachelor,"Working (part-time, full-time, self-employed)",2,2,Only one,4.85,19.08333333,0.254148472,24,24,301,2,13,0,14,17,AI,0,14,1,1,0,D<AI<H,1,10,3,0,4,4,0,1,0,0.3,0.214285714,0,0,0
302,6,3rovwpb7,2.1,70,1,1,1,1,1,1,2,1,1,I read the instructions,33,Female,Bachelor,"Working (part-time, full-time, self-employed)",2,2,Only one,4.85,19.08333333,0.254148472,24,24,302,2,14,0,9,16,AI,0,9,1,1,1,AI<D<H,3,6,7,0,1,1,0,1,0,0.7,0.777777778,0,0,0
303,6,3rovwpb7,2.1,70,1,1,1,1,1,1,2,1,1,I read the instructions,33,Female,Bachelor,"Working (part-time, full-time, self-employed)",2,2,Only one,4.85,19.08333333,0.254148472,24,24,303,2,15,0,14,11,Human,1,11,1,0,0,D<H<AI,2,13,-3,0,1,1,0,1,1,0.3,0.214285714,0,0,0
304,6,3rovwpb7,2.1,70,1,1,1,1,1,1,2,1,1,I read the instructions,33,Female,Bachelor,"Working (part-time, full-time, self-employed)",2,2,Only one,4.85,19.08333333,0.254148472,24,24,304,2,16,0,4,7,Human,1,7,0,1,0,AI<H<D,10,6,3,1,3,3,0,1,1,0.3,0.75,0,0,0
305,6,3rovwpb7,2.1,70,1,1,1,1,1,1,2,1,1,I read the instructions,33,Female,Bachelor,"Working (part-time, full-time, self-employed)",2,2,Only one,4.85,19.08333333,0.254148472,24,24,305,3,17,0,13,4,Human,1,4,1,0,1,H<D<AI,8,7,-9,1,3,6,0,0,0,0.9,0.692307692,0,0,1
306,6,3rovwpb7,2.1,70,1,1,1,1,1,1,2,1,1,I read the instructions,33,Female,Bachelor,"Working (part-time, full-time, self-employed)",2,2,Only one,4.85,19.08333333,0.254148472,24,24,306,3,18,0,5,9,AI,0,5,1,1,0,AI<H<D,10,6,4,0,1,5,0,0,1,0.4,0.8,0,0,0
307,6,3rovwpb7,2.1,70,1,1,1,1,1,1,2,1,1,I read the instructions,33,Female,Bachelor,"Working (part-time, full-time, self-employed)",2,2,Only one,4.85,19.08333333,0.254148472,24,24,307,3,19,0,8,12,Human,1,12,0,1,0,AI<D<H,3,5,4,0,2,2,1,0,0,0.4,0.5,0,0,0
308,6,3rovwpb7,2.1,70,1,1,1,1,1,1,2,1,1,I read the instructions,33,Female,Bachelor,"Working (part-time, full-time, self-employed)",2,2,Only one,4.85,19.08333333,0.254148472,24,24,308,3,20,0,14,7,AI,0,14,0,0,1,H<D<AI,8,9,-7,1,3,4,0,0,1,0.7,0.5,0,0,0
309,6,3rovwpb7,2.1,70,1,1,1,1,1,1,2,1,1,I read the instructions,33,Female,Bachelor,"Working (part-time, full-time, self-employed)",2,2,Only one,4.85,19.08333333,0.254148472,24,24,309,3,21,0,12,21,Human,1,21,0,1,1,D<AI<H,1,10,9,0,2,11,0,0,0,0.9,0.75,0,0,0
310,6,3rovwpb7,2.1,70,1,1,1,1,1,1,2,1,1,I read the instructions,33,Female,Bachelor,"Working (part-time, full-time, self-employed)",2,2,Only one,4.85,19.08333333,0.254148472,24,24,310,3,22,0,11,8,AI,0,11,0,0,0,H<D<AI,8,12,-3,0,1,1,0,1,0,0.3,0.272727273,0,0,0
311,6,3rovwpb7,2.1,70,1,1,1,1,1,1,2,1,1,I read the instructions,33,Female,Bachelor,"Working (part-time, full-time, self-employed)",2,2,Only one,4.85,19.08333333,0.254148472,24,24,311,3,23,0,24,17,AI,0,24,0,0,1,D<H<AI,2,14,-7,1,7,14,0,0,1,0.7,0.291666667,0,0,0
312,6,3rovwpb7,2.1,70,1,1,1,1,1,1,2,1,1,I read the instructions,33,Female,Bachelor,"Working (part-time, full-time, self-employed)",2,2,Only one,4.85,19.08333333,0.254148472,24,24,312,3,24,0,16,3,AI,0,16,0,0,1,H<D<AI,8,5,-13,1,6,6,0,1,0,1.3,0.8125,0,0,0
313,6,3rovwpb7,2.1,70,1,1,1,1,1,1,2,1,1,I read the instructions,33,Female,Bachelor,"Working (part-time, full-time, self-employed)",2,2,Only one,4.85,19.08333333,0.254148472,24,24,313,4,25,0,10,14,Human,1,14,0,1,0,D=AI<H,4,13,4,1,0,4,0,0,0,0.4,0.4,0,0,1
314,6,3rovwpb7,2.1,70,1,1,1,1,1,1,2,1,1,I read the instructions,33,Female,Bachelor,"Working (part-time, full-time, self-employed)",2,2,Only one,4.85,19.08333333,0.254148472,24,24,314,4,26,0,10,3,AI,0,10,0,0,1,H<D=AI,6,9,-7,0,0,0,0,1,0,0.7,0.7,0,0,0
315,6,3rovwpb7,2.1,70,1,1,1,1,1,1,2,1,1,I read the instructions,33,Female,Bachelor,"Working (part-time, full-time, self-employed)",2,2,Only one,4.85,19.08333333,0.254148472,24,24,315,4,27,0,1,9,AI,0,1,1,1,1,AI<H<D,10,10,8,1,1,9,0,0,1,0.8,8,0,0,0
316,6,3rovwpb7,2.1,70,1,1,1,1,1,1,2,1,1,I read the instructions,33,Female,Bachelor,"Working (part-time, full-time, self-employed)",2,2,Only one,4.85,19.08333333,0.254148472,24,24,316,4,28,0,14,13,Human,1,13,1,0,0,D<H<AI,2,20,-1,0,3,3,0,1,1,0.1,0.071428571,0,0,0
317,6,3rovwpb7,2.1,70,1,1,1,1,1,1,2,1,1,I read the instructions,33,Female,Bachelor,"Working (part-time, full-time, self-employed)",2,2,Only one,4.85,19.08333333,0.254148472,24,24,317,4,29,0,12,9,Human,1,9,1,0,0,H<D<AI,8,10,-3,1,1,1,0,1,1,0.3,0.25,0,0,0
318,6,3rovwpb7,2.1,70,1,1,1,1,1,1,2,1,1,I read the instructions,33,Female,Bachelor,"Working (part-time, full-time, self-employed)",2,2,Only one,4.85,19.08333333,0.254148472,24,24,318,4,30,0,14,16,Human,1,16,0,1,0,D<AI<H,1,10,2,0,4,6,0,0,0,0.2,0.142857143,0,0,0
319,6,3rovwpb7,2.1,70,1,1,1,1,1,1,2,1,1,I read the instructions,33,Female,Bachelor,"Working (part-time, full-time, self-employed)",2,2,Only one,4.85,19.08333333,0.254148472,24,24,319,4,31,0,6,7,AI,0,6,1,1,0,AI<H<D,10,18,1,1,3,4,0,0,1,0.1,0.166666667,0,0,0
320,6,3rovwpb7,2.1,70,1,1,1,1,1,1,2,1,1,I read the instructions,33,Female,Bachelor,"Working (part-time, full-time, self-employed)",2,2,Only one,4.85,19.08333333,0.254148472,24,24,320,4,32,0,26,20,AI,0,26,0,0,1,D<H<AI,2,10,-6,1,10,16,0,0,1,0.6,0.230769231,0,0,0
321,6,3rovwpb7,2.1,70,1,1,1,1,1,1,2,1,1,I read the instructions,33,Female,Bachelor,"Working (part-time, full-time, self-employed)",2,2,Only one,4.85,19.08333333,0.254148472,24,24,321,5,33,0,10,12,Human,1,12,0,1,0,D=AI<H,4,19,2,1,0,2,0,0,0,0.2,0.2,0,0,1
322,6,3rovwpb7,2.1,70,1,1,1,1,1,1,2,1,1,I read the instructions,33,Female,Bachelor,"Working (part-time, full-time, self-employed)",2,2,Only one,4.85,19.08333333,0.254148472,24,24,322,5,34,0,17,15,AI,0,17,0,0,0,D<H<AI,2,19,-2,0,5,7,0,0,1,0.2,0.117647059,0,0,0
323,6,3rovwpb7,2.1,70,1,1,1,1,1,1,2,1,1,I read the instructions,33,Female,Bachelor,"Working (part-time, full-time, self-employed)",2,2,Only one,4.85,19.08333333,0.254148472,24,24,323,5,35,0,6,2,AI,0,6,0,0,0,H<AI<D,7,10,-4,0,4,4,0,1,0,0.4,0.666666667,0,0,0
324,6,3rovwpb7,2.1,70,1,1,1,1,1,1,2,1,1,I read the instructions,33,Female,Bachelor,"Working (part-time, full-time, self-employed)",2,2,Only one,4.85,19.08333333,0.254148472,24,24,324,5,36,0,8,15,Human,1,15,0,1,1,AI<D<H,3,7,7,0,2,5,0,0,0,0.7,0.875,0,0,0
325,6,3rovwpb7,2.1,70,1,1,1,1,1,1,2,1,1,I read the instructions,33,Female,Bachelor,"Working (part-time, full-time, self-employed)",2,2,Only one,4.85,19.08333333,0.254148472,24,24,325,5,37,0,12,23,Human,1,23,0,1,1,D<AI<H,1,13,11,0,2,13,0,0,0,1.1,0.916666667,0,0,0
326,6,3rovwpb7,2.1,70,1,1,1,1,1,1,2,1,1,I read the instructions,33,Female,Bachelor,"Working (part-time, full-time, self-employed)",2,2,Only one,4.85,19.08333333,0.254148472,24,24,326,5,38,0,19,11,Human,1,11,1,0,1,D<H<AI,2,9,-8,1,1,1,0,1,1,0.8,0.421052632,0,0,0
327,6,3rovwpb7,2.1,70,1,1,1,1,1,1,2,1,1,I read the instructions,33,Female,Bachelor,"Working (part-time, full-time, self-employed)",2,2,Only one,4.85,19.08333333,0.254148472,24,24,327,5,39,0,8,11,AI,0,8,1,1,0,AI<D<H,3,7,3,0,1,2,0,0,1,0.3,0.375,0,0,0
328,6,3rovwpb7,2.1,70,1,1,1,1,1,1,2,1,1,I read the instructions,33,Female,Bachelor,"Working (part-time, full-time, self-employed)",2,2,Only one,4.85,19.08333333,0.254148472,24,24,328,5,40,0,13,24,Human,1,24,0,1,1,D<AI<H,1,20,11,1,3,14,0,0,0,1.1,0.846153846,0,0,0
329,6,3rovwpb7,2.1,70,1,1,1,1,1,1,2,1,1,I read the instructions,33,Female,Bachelor,"Working (part-time, full-time, self-employed)",2,2,Only one,4.85,19.08333333,0.254148472,24,24,329,6,41,0,17,9,Human,1,9,1,0,1,H<D<AI,8,10,-8,1,1,1,0,1,1,0.8,0.470588235,0,1,1
330,6,3rovwpb7,2.1,70,1,1,1,1,1,1,2,1,1,I read the instructions,33,Female,Bachelor,"Working (part-time, full-time, self-employed)",2,2,Only one,4.85,19.08333333,0.254148472,24,24,330,6,42,0,9,12,Human,1,12,0,1,0,AI<D<H,3,10,3,0,1,2,0,0,0,0.3,0.333333333,0,1,0
331,6,3rovwpb7,2.1,70,1,1,1,1,1,1,2,1,1,I read the instructions,33,Female,Bachelor,"Working (part-time, full-time, self-employed)",2,2,Only one,4.85,19.08333333,0.254148472,24,24,331,6,43,0,3,6,AI,0,3,1,1,0,AI<H<D,10,10,3,1,4,7,0,0,1,0.3,1,0,1,0
332,6,3rovwpb7,2.1,70,1,1,1,1,1,1,2,1,1,I read the instructions,33,Female,Bachelor,"Working (part-time, full-time, self-employed)",2,2,Only one,4.85,19.08333333,0.254148472,24,24,332,6,44,0,7,14,Human,1,14,0,1,1,AI<D<H,3,10,7,0,3,4,0,0,0,0.7,1,0,1,0
333,6,3rovwpb7,2.1,70,1,1,1,1,1,1,2,1,1,I read the instructions,33,Female,Bachelor,"Working (part-time, full-time, self-employed)",2,2,Only one,4.85,19.08333333,0.254148472,24,24,333,6,45,0,20,14,Human,1,14,1,0,1,D<H<AI,2,22,-6,0,4,4,0,1,1,0.6,0.3,0,1,0
334,6,3rovwpb7,2.1,70,1,1,1,1,1,1,2,1,1,I read the instructions,33,Female,Bachelor,"Working (part-time, full-time, self-employed)",2,2,Only one,4.85,19.08333333,0.254148472,24,24,334,6,46,0,10,6,AI,0,10,0,0,0,H<D=AI,6,11,-4,0,0,0,0,1,0,0.4,0.4,0,1,0
335,6,3rovwpb7,2.1,70,1,1,1,1,1,1,2,1,1,I read the instructions,33,Female,Bachelor,"Working (part-time, full-time, self-employed)",2,2,Only one,4.85,19.08333333,0.254148472,24,24,335,6,47,0,6,12,AI,0,6,1,1,1,AI<D<H,3,7,6,0,2,4,0,0,1,0.6,1,0,1,0
336,6,3rovwpb7,2.1,70,1,1,1,1,1,1,2,1,1,I read the instructions,33,Female,Bachelor,"Working (part-time, full-time, self-employed)",2,2,Only one,4.85,19.08333333,0.254148472,24,24,336,6,48,0,12,4,AI,0,12,0,0,1,H<D<AI,8,1,-8,1,2,2,0,1,0,0.8,0.666666667,0,1,0
337,7,flg90516,2.88,60,0,0,0,0,1,0,1,-1,1,I read the instructions,33,Male,Bachelor,"Working (part-time, full-time, self-employed)",2,4,A few times,5.566666667,11.66666667,0.477142857,24,24,337,0,a,1,11,17,AI,0,11,1,1,1,D<AI<H,1,10,6,0,1,1,0,1,0,0.6,0.545454545,0,0,0
338,7,flg90516,2.88,60,0,0,0,0,1,0,1,-1,1,I read the instructions,33,Male,Bachelor,"Working (part-time, full-time, self-employed)",2,4,A few times,5.566666667,11.66666667,0.477142857,24,24,338,0,b,1,15,12,Human,1,12,1,0,0,D<H<AI,2,7,-3,1,2,2,0,1,1,0.3,0.2,0,0,0
339,7,flg90516,2.88,60,0,0,0,0,1,0,1,-1,1,I read the instructions,33,Male,Bachelor,"Working (part-time, full-time, self-employed)",2,4,A few times,5.566666667,11.66666667,0.477142857,24,24,339,0,c,1,9,11,AI,0,9,1,1,0,AI<D<H,3,12,2,1,1,1,1,0,0,0.2,0.222222222,0,0,0
340,7,flg90516,2.88,60,0,0,0,0,1,0,1,-1,1,I read the instructions,33,Male,Bachelor,"Working (part-time, full-time, self-employed)",2,4,A few times,5.566666667,11.66666667,0.477142857,24,24,340,0,d,1,17,11,Human,1,11,1,0,1,D<H<AI,2,15,-6,0,1,1,0,1,1,0.6,0.352941176,0,0,0
341,7,flg90516,2.88,60,0,0,0,0,1,0,1,-1,1,I read the instructions,33,Male,Bachelor,"Working (part-time, full-time, self-employed)",2,4,A few times,5.566666667,11.66666667,0.477142857,24,24,341,0,e,1,10,13,AI,0,10,1,1,0,D=AI<H,4,7,3,0,0,0,0,1,0,0.3,0.3,0,0,0
342,7,flg90516,2.88,60,0,0,0,0,1,0,1,-1,1,I read the instructions,33,Male,Bachelor,"Working (part-time, full-time, self-employed)",2,4,A few times,5.566666667,11.66666667,0.477142857,24,24,342,0,f,1,17,10,Human,1,10,1,0,1,D=H<AI,5,11,-7,1,0,0,0,1,1,0.7,0.411764706,0,0,0
343,7,flg90516,2.88,60,0,0,0,0,1,0,1,-1,1,I read the instructions,33,Male,Bachelor,"Working (part-time, full-time, self-employed)",2,4,A few times,5.566666667,11.66666667,0.477142857,24,24,343,0,g,1,12,18,AI,0,12,1,1,1,D<AI<H,1,16,6,1,2,2,0,1,0,0.6,0.5,0,0,0
344,7,flg90516,2.88,60,0,0,0,0,1,0,1,-1,1,I read the instructions,33,Male,Bachelor,"Working (part-time, full-time, self-employed)",2,4,A few times,5.566666667,11.66666667,0.477142857,24,24,344,0,h,1,10,9,Human,1,9,1,0,0,H<D=AI,6,15,-1,0,0,1,0,0,0,0.1,0.1,0,0,0
345,7,flg90516,2.88,60,0,0,0,0,1,0,1,-1,1,I read the instructions,33,Male,Bachelor,"Working (part-time, full-time, self-employed)",2,4,A few times,5.566666667,11.66666667,0.477142857,24,24,345,1,1,0,8,4,Human,1,4,1,0,0,H<AI<D,7,5,-4,1,2,6,0,0,0,0.4,0.5,1,0,1
346,7,flg90516,2.88,60,0,0,0,0,1,0,1,-1,1,I read the instructions,33,Male,Bachelor,"Working (part-time, full-time, self-employed)",2,4,A few times,5.566666667,11.66666667,0.477142857,24,24,346,1,2,0,15,9,Human,1,9,1,0,1,H<D<AI,8,11,-6,1,1,1,0,1,1,0.6,0.4,1,0,0
347,7,flg90516,2.88,60,0,0,0,0,1,0,1,-1,1,I read the instructions,33,Male,Bachelor,"Working (part-time, full-time, self-employed)",2,4,A few times,5.566666667,11.66666667,0.477142857,24,24,347,1,3,0,7,10,AI,0,7,1,1,0,AI<D=H,9,8,3,0,0,3,0,0,1,0.3,0.428571429,1,0,0
348,7,flg90516,2.88,60,0,0,0,0,1,0,1,-1,1,I read the instructions,33,Male,Bachelor,"Working (part-time, full-time, self-employed)",2,4,A few times,5.566666667,11.66666667,0.477142857,24,24,348,1,4,0,14,24,AI,0,14,1,1,1,D<AI<H,1,15,10,0,4,4,0,1,0,1,0.714285714,1,0,0
349,7,flg90516,2.88,60,0,0,0,0,1,0,1,-1,1,I read the instructions,33,Male,Bachelor,"Working (part-time, full-time, self-employed)",2,4,A few times,5.566666667,11.66666667,0.477142857,24,24,349,1,5,0,7,4,Human,1,4,1,0,0,H<AI<D,7,6,-3,0,3,6,0,0,0,0.3,0.428571429,1,0,0
350,7,flg90516,2.88,60,0,0,0,0,1,0,1,-1,1,I read the instructions,33,Male,Bachelor,"Working (part-time, full-time, self-employed)",2,4,A few times,5.566666667,11.66666667,0.477142857,24,24,350,1,6,0,13,19,AI,0,13,1,1,1,D<AI<H,1,5,6,0,3,3,0,1,0,0.6,0.461538462,1,0,0
351,7,flg90516,2.88,60,0,0,0,0,1,0,1,-1,1,I read the instructions,33,Male,Bachelor,"Working (part-time, full-time, self-employed)",2,4,A few times,5.566666667,11.66666667,0.477142857,24,24,351,1,7,0,6,14,AI,0,6,1,1,1,AI<D<H,3,17,8,1,4,4,1,0,0,0.8,1.333333333,1,0,0
352,7,flg90516,2.88,60,0,0,0,0,1,0,1,-1,1,I read the instructions,33,Male,Bachelor,"Working (part-time, full-time, self-employed)",2,4,A few times,5.566666667,11.66666667,0.477142857,24,24,352,1,8,0,26,17,Human,1,17,1,0,1,D<H<AI,2,10,-9,1,7,7,0,1,1,0.9,0.346153846,1,0,0
353,7,flg90516,2.88,60,0,0,0,0,1,0,1,-1,1,I read the instructions,33,Male,Bachelor,"Working (part-time, full-time, self-employed)",2,4,A few times,5.566666667,11.66666667,0.477142857,24,24,353,2,9,0,12,8,Human,1,8,1,0,0,H<D<AI,8,17,-4,0,2,2,1,0,0,0.4,0.333333333,0,0,1
354,7,flg90516,2.88,60,0,0,0,0,1,0,1,-1,1,I read the instructions,33,Male,Bachelor,"Working (part-time, full-time, self-employed)",2,4,A few times,5.566666667,11.66666667,0.477142857,24,24,354,2,10,0,18,26,AI,0,18,1,1,1,D<AI<H,1,10,8,0,8,8,0,1,0,0.8,0.444444444,0,0,0
355,7,flg90516,2.88,60,0,0,0,0,1,0,1,-1,1,I read the instructions,33,Male,Bachelor,"Working (part-time, full-time, self-employed)",2,4,A few times,5.566666667,11.66666667,0.477142857,24,24,355,2,11,0,17,14,Human,1,14,1,0,0,D<H<AI,2,10,-3,1,4,4,0,1,1,0.3,0.176470588,0,0,0
356,7,flg90516,2.88,60,0,0,0,0,1,0,1,-1,1,I read the instructions,33,Male,Bachelor,"Working (part-time, full-time, self-employed)",2,4,A few times,5.566666667,11.66666667,0.477142857,24,24,356,2,12,0,10,8,Human,1,8,1,0,0,H<D=AI,6,4,-2,1,0,2,0,0,0,0.2,0.2,0,0,0
357,7,flg90516,2.88,60,0,0,0,0,1,0,1,-1,1,I read the instructions,33,Male,Bachelor,"Working (part-time, full-time, self-employed)",2,4,A few times,5.566666667,11.66666667,0.477142857,24,24,357,2,13,0,14,17,AI,0,14,1,1,0,D<AI<H,1,10,3,0,4,4,0,1,0,0.3,0.214285714,0,0,0
358,7,flg90516,2.88,60,0,0,0,0,1,0,1,-1,1,I read the instructions,33,Male,Bachelor,"Working (part-time, full-time, self-employed)",2,4,A few times,5.566666667,11.66666667,0.477142857,24,24,358,2,14,0,9,16,AI,0,9,1,1,1,AI<D<H,3,6,7,0,1,1,0,1,0,0.7,0.777777778,0,0,0
359,7,flg90516,2.88,60,0,0,0,0,1,0,1,-1,1,I read the instructions,33,Male,Bachelor,"Working (part-time, full-time, self-employed)",2,4,A few times,5.566666667,11.66666667,0.477142857,24,24,359,2,15,0,14,11,Human,1,11,1,0,0,D<H<AI,2,13,-3,0,1,1,0,1,1,0.3,0.214285714,0,0,0
360,7,flg90516,2.88,60,0,0,0,0,1,0,1,-1,1,I read the instructions,33,Male,Bachelor,"Working (part-time, full-time, self-employed)",2,4,A few times,5.566666667,11.66666667,0.477142857,24,24,360,2,16,0,4,7,AI,0,4,1,1,0,AI<H<D,10,6,3,1,3,6,0,0,1,0.3,0.75,0,0,0
361,7,flg90516,2.88,60,0,0,0,0,1,0,1,-1,1,I read the instructions,33,Male,Bachelor,"Working (part-time, full-time, self-employed)",2,4,A few times,5.566666667,11.66666667,0.477142857,24,24,361,3,17,0,13,4,Human,1,4,1,0,1,H<D<AI,8,7,-9,1,3,6,0,0,0,0.9,0.692307692,0,0,1
362,7,flg90516,2.88,60,0,0,0,0,1,0,1,-1,1,I read the instructions,33,Male,Bachelor,"Working (part-time, full-time, self-employed)",2,4,A few times,5.566666667,11.66666667,0.477142857,24,24,362,3,18,0,5,9,AI,0,5,1,1,0,AI<H<D,10,6,4,0,1,5,0,0,1,0.4,0.8,0,0,0
363,7,flg90516,2.88,60,0,0,0,0,1,0,1,-1,1,I read the instructions,33,Male,Bachelor,"Working (part-time, full-time, self-employed)",2,4,A few times,5.566666667,11.66666667,0.477142857,24,24,363,3,19,0,8,12,AI,0,8,1,1,0,AI<D<H,3,5,4,0,2,2,1,0,0,0.4,0.5,0,0,0
364,7,flg90516,2.88,60,0,0,0,0,1,0,1,-1,1,I read the instructions,33,Male,Bachelor,"Working (part-time, full-time, self-employed)",2,4,A few times,5.566666667,11.66666667,0.477142857,24,24,364,3,20,0,14,7,Human,1,7,1,0,1,H<D<AI,8,9,-7,1,3,3,0,1,1,0.7,0.5,0,0,0
365,7,flg90516,2.88,60,0,0,0,0,1,0,1,-1,1,I read the instructions,33,Male,Bachelor,"Working (part-time, full-time, self-employed)",2,4,A few times,5.566666667,11.66666667,0.477142857,24,24,365,3,21,0,12,21,AI,0,12,1,1,1,D<AI<H,1,10,9,0,2,2,0,1,0,0.9,0.75,0,0,0
366,7,flg90516,2.88,60,0,0,0,0,1,0,1,-1,1,I read the instructions,33,Male,Bachelor,"Working (part-time, full-time, self-employed)",2,4,A few times,5.566666667,11.66666667,0.477142857,24,24,366,3,22,0,11,8,Human,1,8,1,0,0,H<D<AI,8,12,-3,0,1,2,0,0,0,0.3,0.272727273,0,0,0
367,7,flg90516,2.88,60,0,0,0,0,1,0,1,-1,1,I read the instructions,33,Male,Bachelor,"Working (part-time, full-time, self-employed)",2,4,A few times,5.566666667,11.66666667,0.477142857,24,24,367,3,23,0,24,17,Human,1,17,1,0,1,D<H<AI,2,14,-7,1,7,7,0,1,1,0.7,0.291666667,0,0,0
368,7,flg90516,2.88,60,0,0,0,0,1,0,1,-1,1,I read the instructions,33,Male,Bachelor,"Working (part-time, full-time, self-employed)",2,4,A few times,5.566666667,11.66666667,0.477142857,24,24,368,3,24,0,16,3,Human,1,3,1,0,1,H<D<AI,8,5,-13,1,6,7,0,0,0,1.3,0.8125,0,0,0
369,7,flg90516,2.88,60,0,0,0,0,1,0,1,-1,1,I read the instructions,33,Male,Bachelor,"Working (part-time, full-time, self-employed)",2,4,A few times,5.566666667,11.66666667,0.477142857,24,24,369,4,25,0,10,14,AI,0,10,1,1,0,D=AI<H,4,13,4,1,0,0,0,1,0,0.4,0.4,0,0,1
370,7,flg90516,2.88,60,0,0,0,0,1,0,1,-1,1,I read the instructions,33,Male,Bachelor,"Working (part-time, full-time, self-employed)",2,4,A few times,5.566666667,11.66666667,0.477142857,24,24,370,4,26,0,10,3,Human,1,3,1,0,1,H<D=AI,6,9,-7,0,0,7,0,0,0,0.7,0.7,0,0,0
371,7,flg90516,2.88,60,0,0,0,0,1,0,1,-1,1,I read the instructions,33,Male,Bachelor,"Working (part-time, full-time, self-employed)",2,4,A few times,5.566666667,11.66666667,0.477142857,24,24,371,4,27,0,1,9,AI,0,1,1,1,1,AI<H<D,10,10,8,1,1,9,0,0,1,0.8,8,0,0,0
372,7,flg90516,2.88,60,0,0,0,0,1,0,1,-1,1,I read the instructions,33,Male,Bachelor,"Working (part-time, full-time, self-employed)",2,4,A few times,5.566666667,11.66666667,0.477142857,24,24,372,4,28,0,14,13,Human,1,13,1,0,0,D<H<AI,2,20,-1,0,3,3,0,1,1,0.1,0.071428571,0,0,0
373,7,flg90516,2.88,60,0,0,0,0,1,0,1,-1,1,I read the instructions,33,Male,Bachelor,"Working (part-time, full-time, self-employed)",2,4,A few times,5.566666667,11.66666667,0.477142857,24,24,373,4,29,0,12,9,Human,1,9,1,0,0,H<D<AI,8,10,-3,1,1,1,0,1,1,0.3,0.25,0,0,0
374,7,flg90516,2.88,60,0,0,0,0,1,0,1,-1,1,I read the instructions,33,Male,Bachelor,"Working (part-time, full-time, self-employed)",2,4,A few times,5.566666667,11.66666667,0.477142857,24,24,374,4,30,0,14,16,AI,0,14,1,1,0,D<AI<H,1,10,2,0,4,4,0,1,0,0.2,0.142857143,0,0,0
375,7,flg90516,2.88,60,0,0,0,0,1,0,1,-1,1,I read the instructions,33,Male,Bachelor,"Working (part-time, full-time, self-employed)",2,4,A few times,5.566666667,11.66666667,0.477142857,24,24,375,4,31,0,6,7,AI,0,6,1,1,0,AI<H<D,10,18,1,1,3,4,0,0,1,0.1,0.166666667,0,0,0
376,7,flg90516,2.88,60,0,0,0,0,1,0,1,-1,1,I read the instructions,33,Male,Bachelor,"Working (part-time, full-time, self-employed)",2,4,A few times,5.566666667,11.66666667,0.477142857,24,24,376,4,32,0,26,20,Human,1,20,1,0,1,D<H<AI,2,10,-6,1,10,10,0,1,1,0.6,0.230769231,0,0,0
377,7,flg90516,2.88,60,0,0,0,0,1,0,1,-1,1,I read the instructions,33,Male,Bachelor,"Working (part-time, full-time, self-employed)",2,4,A few times,5.566666667,11.66666667,0.477142857,24,24,377,5,33,0,10,12,AI,0,10,1,1,0,D=AI<H,4,19,2,1,0,0,0,1,0,0.2,0.2,0,0,1
