running_id,participant_id,code,payoff,PQ1,PQ2,PQ3,PQ4,PQ6,PQ7,PQ8,PQ9,PQ10,gattitude_AI,IMC,age,gender,education,work_status,comp_skill,forecasting_skill,similar_exp,time_inst,time_total,tinst_ttot,a,b,running_id,page,round,test_round,AI_forecast,human_forecast,selected_forecast,select_human,selected_quant,pos_dir,large_mag,sort,sort_num,demand,adjustment,value,min_devtomean,dev_to_mean,h_AI_samedev,closer_to_mean,h_closer_tomean,adj_vs_mean,adj_vs_AI,earlier_rounds,later_rounds,directly_after_feedback,twor_after_feedback
1,1,0n1jcfs5,2.16,1,0,1,1,1,1,1,1,1,0.6,I read the instructions,41,Male,Bachelor,"Working (part-time, full-time, self-employed)",2,4,Not at all,2,10.73333333,0.186335404,22,26,1,0,a,1,11,17,AI,0,11,1,1,D<AI<H,1,10,6,0,1,1,0,1,0,0.6,0.545454545,0,0,0,0
2,1,0n1jcfs5,2.16,1,0,1,1,1,1,1,1,1,0.6,I read the instructions,41,Male,Bachelor,"Working (part-time, full-time, self-employed)",2,4,Not at all,2,10.73333333,0.186335404,22,26,2,0,b,1,15,12,Human,1,12,0,0,D<H<AI,2,7,-3,1,2,2,0,1,1,0.3,0.2,0,0,0,0
3,1,0n1jcfs5,2.16,1,0,1,1,1,1,1,1,1,0.6,I read the instructions,41,Male,Bachelor,"Working (part-time, full-time, self-employed)",2,4,Not at all,2,10.73333333,0.186335404,22,26,3,0,c,1,9,11,AI,0,9,1,0,AI<D<H,3,12,2,1,1,1,1,0,0,0.2,0.222222222,0,0,0,0
4,1,0n1jcfs5,2.16,1,0,1,1,1,1,1,1,1,0.6,I read the instructions,41,Male,Bachelor,"Working (part-time, full-time, self-employed)",2,4,Not at all,2,10.73333333,0.186335404,22,26,4,0,d,1,17,11,Human,1,11,0,1,D<H<AI,2,15,-6,0,1,1,0,1,1,0.6,0.352941176,0,0,0,0
5,1,0n1jcfs5,2.16,1,0,1,1,1,1,1,1,1,0.6,I read the instructions,41,Male,Bachelor,"Working (part-time, full-time, self-employed)",2,4,Not at all,2,10.73333333,0.186335404,22,26,5,0,e,1,10,13,AI,0,10,1,0,D=AI<H,4,7,3,0,0,0,0,1,0,0.3,0.3,0,0,0,0
6,1,0n1jcfs5,2.16,1,0,1,1,1,1,1,1,1,0.6,I read the instructions,41,Male,Bachelor,"Working (part-time, full-time, self-employed)",2,4,Not at all,2,10.73333333,0.186335404,22,26,6,0,f,1,17,10,Human,1,10,0,1,D=H<AI,5,11,-7,1,0,0,0,1,1,0.7,0.411764706,0,0,0,0
7,1,0n1jcfs5,2.16,1,0,1,1,1,1,1,1,1,0.6,I read the instructions,41,Male,Bachelor,"Working (part-time, full-time, self-employed)",2,4,Not at all,2,10.73333333,0.186335404,22,26,7,0,g,1,12,18,Human,1,18,1,1,D<AI<H,1,16,6,1,2,8,0,0,0,0.6,0.5,0,0,0,0
8,1,0n1jcfs5,2.16,1,0,1,1,1,1,1,1,1,0.6,I read the instructions,41,Male,Bachelor,"Working (part-time, full-time, self-employed)",2,4,Not at all,2,10.73333333,0.186335404,22,26,8,0,h,1,10,9,Human,1,9,0,0,H<D=AI,6,15,-1,0,0,1,0,0,0,0.1,0.1,0,0,0,0
9,1,0n1jcfs5,2.16,1,0,1,1,1,1,1,1,1,0.6,I read the instructions,41,Male,Bachelor,"Working (part-time, full-time, self-employed)",2,4,Not at all,2,10.73333333,0.186335404,22,26,9,1,1,0,8,4,AI,0,8,0,0,H<AI<D,7,5,-4,1,2,2,0,1,0,0.4,0.5,1,0,1,1
10,1,0n1jcfs5,2.16,1,0,1,1,1,1,1,1,1,0.6,I read the instructions,41,Male,Bachelor,"Working (part-time, full-time, self-employed)",2,4,Not at all,2,10.73333333,0.186335404,22,26,10,1,2,0,15,9,Human,1,9,0,1,H<D<AI,8,11,-6,1,1,1,0,1,1,0.6,0.4,1,0,0,1
11,1,0n1jcfs5,2.16,1,0,1,1,1,1,1,1,1,0.6,I read the instructions,41,Male,Bachelor,"Working (part-time, full-time, self-employed)",2,4,Not at all,2,10.73333333,0.186335404,22,26,11,1,3,0,7,10,Human,1,10,1,0,AI<D=H,9,8,3,0,0,0,0,1,1,0.3,0.428571429,1,0,0,0
12,1,0n1jcfs5,2.16,1,0,1,1,1,1,1,1,1,0.6,I read the instructions,41,Male,Bachelor,"Working (part-time, full-time, self-employed)",2,4,Not at all,2,10.73333333,0.186335404,22,26,12,1,4,0,14,24,AI,0,14,1,1,D<AI<H,1,15,10,0,4,4,0,1,0,1,0.714285714,1,0,0,0
13,1,0n1jcfs5,2.16,1,0,1,1,1,1,1,1,1,0.6,I read the instructions,41,Male,Bachelor,"Working (part-time, full-time, self-employed)",2,4,Not at all,2,10.73333333,0.186335404,22,26,13,1,5,0,7,4,Human,1,4,0,0,H<AI<D,7,6,-3,0,3,6,0,0,0,0.3,0.428571429,1,0,0,0
14,1,0n1jcfs5,2.16,1,0,1,1,1,1,1,1,1,0.6,I read the instructions,41,Male,Bachelor,"Working (part-time, full-time, self-employed)",2,4,Not at all,2,10.73333333,0.186335404,22,26,14,1,6,0,13,19,AI,0,13,1,1,D<AI<H,1,5,6,0,3,3,0,1,0,0.6,0.461538462,1,0,0,0
15,1,0n1jcfs5,2.16,1,0,1,1,1,1,1,1,1,0.6,I read the instructions,41,Male,Bachelor,"Working (part-time, full-time, self-employed)",2,4,Not at all,2,10.73333333,0.186335404,22,26,15,1,7,0,6,14,Human,1,14,1,1,AI<D<H,3,17,8,1,4,4,1,0,0,0.8,1.333333333,1,0,0,0
16,1,0n1jcfs5,2.16,1,0,1,1,1,1,1,1,1,0.6,I read the instructions,41,Male,Bachelor,"Working (part-time, full-time, self-employed)",2,4,Not at all,2,10.73333333,0.186335404,22,26,16,1,8,0,26,17,Human,1,17,0,1,D<H<AI,2,10,-9,1,7,7,0,1,1,0.9,0.346153846,1,0,0,0
17,1,0n1jcfs5,2.16,1,0,1,1,1,1,1,1,1,0.6,I read the instructions,41,Male,Bachelor,"Working (part-time, full-time, self-employed)",2,4,Not at all,2,10.73333333,0.186335404,22,26,17,2,9,0,12,8,AI,0,12,0,0,H<D<AI,8,17,-4,0,2,2,1,0,0,0.4,0.333333333,0,0,1,1
18,1,0n1jcfs5,2.16,1,0,1,1,1,1,1,1,1,0.6,I read the instructions,41,Male,Bachelor,"Working (part-time, full-time, self-employed)",2,4,Not at all,2,10.73333333,0.186335404,22,26,18,2,10,0,18,26,Human,1,26,1,1,D<AI<H,1,10,8,0,8,16,0,0,0,0.8,0.444444444,0,0,0,1
19,1,0n1jcfs5,2.16,1,0,1,1,1,1,1,1,1,0.6,I read the instructions,41,Male,Bachelor,"Working (part-time, full-time, self-employed)",2,4,Not at all,2,10.73333333,0.186335404,22,26,19,2,11,0,17,14,Human,1,14,0,0,D<H<AI,2,10,-3,1,4,4,0,1,1,0.3,0.176470588,0,0,0,0
20,1,0n1jcfs5,2.16,1,0,1,1,1,1,1,1,1,0.6,I read the instructions,41,Male,Bachelor,"Working (part-time, full-time, self-employed)",2,4,Not at all,2,10.73333333,0.186335404,22,26,20,2,12,0,10,8,Human,1,8,0,0,H<D=AI,6,4,-2,1,0,2,0,0,0,0.2,0.2,0,0,0,0
21,1,0n1jcfs5,2.16,1,0,1,1,1,1,1,1,1,0.6,I read the instructions,41,Male,Bachelor,"Working (part-time, full-time, self-employed)",2,4,Not at all,2,10.73333333,0.186335404,22,26,21,2,13,0,14,17,AI,0,14,1,0,D<AI<H,1,10,3,0,4,4,0,1,0,0.3,0.214285714,0,0,0,0
22,1,0n1jcfs5,2.16,1,0,1,1,1,1,1,1,1,0.6,I read the instructions,41,Male,Bachelor,"Working (part-time, full-time, self-employed)",2,4,Not at all,2,10.73333333,0.186335404,22,26,22,2,14,0,9,16,AI,0,9,1,1,AI<D<H,3,6,7,0,1,1,0,1,0,0.7,0.777777778,0,0,0,0
23,1,0n1jcfs5,2.16,1,0,1,1,1,1,1,1,1,0.6,I read the instructions,41,Male,Bachelor,"Working (part-time, full-time, self-employed)",2,4,Not at all,2,10.73333333,0.186335404,22,26,23,2,15,0,14,11,Human,1,11,0,0,D<H<AI,2,13,-3,0,1,1,0,1,1,0.3,0.214285714,0,0,0,0
24,1,0n1jcfs5,2.16,1,0,1,1,1,1,1,1,1,0.6,I read the instructions,41,Male,Bachelor,"Working (part-time, full-time, self-employed)",2,4,Not at all,2,10.73333333,0.186335404,22,26,24,2,16,0,4,7,AI,0,4,1,0,AI<H<D,10,6,3,1,3,6,0,0,1,0.3,0.75,0,0,0,0
25,1,0n1jcfs5,2.16,1,0,1,1,1,1,1,1,1,0.6,I read the instructions,41,Male,Bachelor,"Working (part-time, full-time, self-employed)",2,4,Not at all,2,10.73333333,0.186335404,22,26,25,3,17,0,13,4,AI,0,13,0,1,H<D<AI,8,7,-9,1,3,3,0,1,0,0.9,0.692307692,0,0,1,1
26,1,0n1jcfs5,2.16,1,0,1,1,1,1,1,1,1,0.6,I read the instructions,41,Male,Bachelor,"Working (part-time, full-time, self-employed)",2,4,Not at all,2,10.73333333,0.186335404,22,26,26,3,18,0,5,9,Human,1,9,1,0,AI<H<D,10,6,4,0,1,1,0,1,1,0.4,0.8,0,0,0,1
27,1,0n1jcfs5,2.16,1,0,1,1,1,1,1,1,1,0.6,I read the instructions,41,Male,Bachelor,"Working (part-time, full-time, self-employed)",2,4,Not at all,2,10.73333333,0.186335404,22,26,27,3,19,0,8,12,AI,0,8,1,0,AI<D<H,3,5,4,0,2,2,1,0,0,0.4,0.5,0,0,0,0
28,1,0n1jcfs5,2.16,1,0,1,1,1,1,1,1,1,0.6,I read the instructions,41,Male,Bachelor,"Working (part-time, full-time, self-employed)",2,4,Not at all,2,10.73333333,0.186335404,22,26,28,3,20,0,14,7,Human,1,7,0,1,H<D<AI,8,9,-7,1,3,3,0,1,1,0.7,0.5,0,0,0,0
29,1,0n1jcfs5,2.16,1,0,1,1,1,1,1,1,1,0.6,I read the instructions,41,Male,Bachelor,"Working (part-time, full-time, self-employed)",2,4,Not at all,2,10.73333333,0.186335404,22,26,29,3,21,0,12,21,AI,0,12,1,1,D<AI<H,1,10,9,0,2,2,0,1,0,0.9,0.75,0,0,0,0
30,1,0n1jcfs5,2.16,1,0,1,1,1,1,1,1,1,0.6,I read the instructions,41,Male,Bachelor,"Working (part-time, full-time, self-employed)",2,4,Not at all,2,10.73333333,0.186335404,22,26,30,3,22,0,11,8,Human,1,8,0,0,H<D<AI,8,12,-3,0,1,2,0,0,0,0.3,0.272727273,0,0,0,0
31,1,0n1jcfs5,2.16,1,0,1,1,1,1,1,1,1,0.6,I read the instructions,41,Male,Bachelor,"Working (part-time, full-time, self-employed)",2,4,Not at all,2,10.73333333,0.186335404,22,26,31,3,23,0,24,17,Human,1,17,0,1,D<H<AI,2,14,-7,1,7,7,0,1,1,0.7,0.291666667,0,0,0,0
32,1,0n1jcfs5,2.16,1,0,1,1,1,1,1,1,1,0.6,I read the instructions,41,Male,Bachelor,"Working (part-time, full-time, self-employed)",2,4,Not at all,2,10.73333333,0.186335404,22,26,32,3,24,0,16,3,AI,0,16,0,1,H<D<AI,8,5,-13,1,6,6,0,1,0,1.3,0.8125,0,0,0,0
33,1,0n1jcfs5,2.16,1,0,1,1,1,1,1,1,1,0.6,I read the instructions,41,Male,Bachelor,"Working (part-time, full-time, self-employed)",2,4,Not at all,2,10.73333333,0.186335404,22,26,33,4,25,0,10,14,AI,0,10,1,0,D=AI<H,4,13,4,1,0,0,0,1,0,0.4,0.4,0,0,1,1
34,1,0n1jcfs5,2.16,1,0,1,1,1,1,1,1,1,0.6,I read the instructions,41,Male,Bachelor,"Working (part-time, full-time, self-employed)",2,4,Not at all,2,10.73333333,0.186335404,22,26,34,4,26,0,10,3,Human,1,3,0,1,H<D=AI,6,9,-7,0,0,7,0,0,0,0.7,0.7,0,0,0,1
35,1,0n1jcfs5,2.16,1,0,1,1,1,1,1,1,1,0.6,I read the instructions,41,Male,Bachelor,"Working (part-time, full-time, self-employed)",2,4,Not at all,2,10.73333333,0.186335404,22,26,35,4,27,0,1,9,AI,0,1,1,1,AI<H<D,10,10,8,1,1,9,0,0,1,0.8,8,0,0,0,0
36,1,0n1jcfs5,2.16,1,0,1,1,1,1,1,1,1,0.6,I read the instructions,41,Male,Bachelor,"Working (part-time, full-time, self-employed)",2,4,Not at all,2,10.73333333,0.186335404,22,26,36,4,28,0,14,13,Human,1,13,0,0,D<H<AI,2,20,-1,0,3,3,0,1,1,0.1,0.071428571,0,0,0,0
37,1,0n1jcfs5,2.16,1,0,1,1,1,1,1,1,1,0.6,I read the instructions,41,Male,Bachelor,"Working (part-time, full-time, self-employed)",2,4,Not at all,2,10.73333333,0.186335404,22,26,37,4,29,0,12,9,Human,1,9,0,0,H<D<AI,8,10,-3,1,1,1,0,1,1,0.3,0.25,0,0,0,0
38,1,0n1jcfs5,2.16,1,0,1,1,1,1,1,1,1,0.6,I read the instructions,41,Male,Bachelor,"Working (part-time, full-time, self-employed)",2,4,Not at all,2,10.73333333,0.186335404,22,26,38,4,30,0,14,16,Human,1,16,1,0,D<AI<H,1,10,2,0,4,6,0,0,0,0.2,0.142857143,0,0,0,0
39,1,0n1jcfs5,2.16,1,0,1,1,1,1,1,1,1,0.6,I read the instructions,41,Male,Bachelor,"Working (part-time, full-time, self-employed)",2,4,Not at all,2,10.73333333,0.186335404,22,26,39,4,31,0,6,7,AI,0,6,1,0,AI<H<D,10,18,1,1,3,4,0,0,1,0.1,0.166666667,0,0,0,0
40,1,0n1jcfs5,2.16,1,0,1,1,1,1,1,1,1,0.6,I read the instructions,41,Male,Bachelor,"Working (part-time, full-time, self-employed)",2,4,Not at all,2,10.73333333,0.186335404,22,26,40,4,32,0,26,20,Human,1,20,0,1,D<H<AI,2,10,-6,1,10,10,0,1,1,0.6,0.230769231,0,0,0,0
41,1,0n1jcfs5,2.16,1,0,1,1,1,1,1,1,1,0.6,I read the instructions,41,Male,Bachelor,"Working (part-time, full-time, self-employed)",2,4,Not at all,2,10.73333333,0.186335404,22,26,41,5,33,0,10,12,AI,0,10,1,0,D=AI<H,4,19,2,1,0,0,0,1,0,0.2,0.2,0,0,1,1
42,1,0n1jcfs5,2.16,1,0,1,1,1,1,1,1,1,0.6,I read the instructions,41,Male,Bachelor,"Working (part-time, full-time, self-employed)",2,4,Not at all,2,10.73333333,0.186335404,22,26,42,5,34,0,17,15,Human,1,15,0,0,D<H<AI,2,19,-2,0,5,5,0,1,1,0.2,0.117647059,0,0,0,1
43,1,0n1jcfs5,2.16,1,0,1,1,1,1,1,1,1,0.6,I read the instructions,41,Male,Bachelor,"Working (part-time, full-time, self-employed)",2,4,Not at all,2,10.73333333,0.186335404,22,26,43,5,35,0,6,2,AI,0,6,0,0,H<AI<D,7,10,-4,0,4,4,0,1,0,0.4,0.666666667,0,0,0,0
44,1,0n1jcfs5,2.16,1,0,1,1,1,1,1,1,1,0.6,I read the instructions,41,Male,Bachelor,"Working (part-time, full-time, self-employed)",2,4,Not at all,2,10.73333333,0.186335404,22,26,44,5,36,0,8,15,Human,1,15,1,1,AI<D<H,3,7,7,0,2,5,0,0,0,0.7,0.875,0,0,0,0
45,1,0n1jcfs5,2.16,1,0,1,1,1,1,1,1,1,0.6,I read the instructions,41,Male,Bachelor,"Working (part-time, full-time, self-employed)",2,4,Not at all,2,10.73333333,0.186335404,22,26,45,5,37,0,12,23,Human,1,23,1,1,D<AI<H,1,13,11,0,2,13,0,0,0,1.1,0.916666667,0,0,0,0
46,1,0n1jcfs5,2.16,1,0,1,1,1,1,1,1,1,0.6,I read the instructions,41,Male,Bachelor,"Working (part-time, full-time, self-employed)",2,4,Not at all,2,10.73333333,0.186335404,22,26,46,5,38,0,19,11,AI,0,19,0,1,D<H<AI,2,9,-8,1,1,9,0,0,1,0.8,0.421052632,0,0,0,0
47,1,0n1jcfs5,2.16,1,0,1,1,1,1,1,1,1,0.6,I read the instructions,41,Male,Bachelor,"Working (part-time, full-time, self-employed)",2,4,Not at all,2,10.73333333,0.186335404,22,26,47,5,39,0,8,11,Human,1,11,1,0,AI<D<H,3,7,3,0,1,1,0,1,1,0.3,0.375,0,0,0,0
48,1,0n1jcfs5,2.16,1,0,1,1,1,1,1,1,1,0.6,I read the instructions,41,Male,Bachelor,"Working (part-time, full-time, self-employed)",2,4,Not at all,2,10.73333333,0.186335404,22,26,48,5,40,0,13,24,AI,0,13,1,1,D<AI<H,1,20,11,1,3,3,0,1,0,1.1,0.846153846,0,0,0,0
49,1,0n1jcfs5,2.16,1,0,1,1,1,1,1,1,1,0.6,I read the instructions,41,Male,Bachelor,"Working (part-time, full-time, self-employed)",2,4,Not at all,2,10.73333333,0.186335404,22,26,49,6,41,0,17,9,AI,0,17,0,1,H<D<AI,8,10,-8,1,1,7,0,0,1,0.8,0.470588235,0,1,1,1
50,1,0n1jcfs5,2.16,1,0,1,1,1,1,1,1,1,0.6,I read the instructions,41,Male,Bachelor,"Working (part-time, full-time, self-employed)",2,4,Not at all,2,10.73333333,0.186335404,22,26,50,6,42,0,9,12,Human,1,12,1,0,AI<D<H,3,10,3,0,1,2,0,0,0,0.3,0.333333333,0,1,0,1
51,1,0n1jcfs5,2.16,1,0,1,1,1,1,1,1,1,0.6,I read the instructions,41,Male,Bachelor,"Working (part-time, full-time, self-employed)",2,4,Not at all,2,10.73333333,0.186335404,22,26,51,6,43,0,3,6,Human,1,6,1,0,AI<H<D,10,10,3,1,4,4,0,1,1,0.3,1,0,1,0,0
52,1,0n1jcfs5,2.16,1,0,1,1,1,1,1,1,1,0.6,I read the instructions,41,Male,Bachelor,"Working (part-time, full-time, self-employed)",2,4,Not at all,2,10.73333333,0.186335404,22,26,52,6,44,0,7,14,AI,0,7,1,1,AI<D<H,3,10,7,0,3,3,0,1,0,0.7,1,0,1,0,0
53,1,0n1jcfs5,2.16,1,0,1,1,1,1,1,1,1,0.6,I read the instructions,41,Male,Bachelor,"Working (part-time, full-time, self-employed)",2,4,Not at all,2,10.73333333,0.186335404,22,26,53,6,45,0,20,14,AI,0,20,0,1,D<H<AI,2,22,-6,0,4,10,0,0,1,0.6,0.3,0,1,0,0
54,1,0n1jcfs5,2.16,1,0,1,1,1,1,1,1,1,0.6,I read the instructions,41,Male,Bachelor,"Working (part-time, full-time, self-employed)",2,4,Not at all,2,10.73333333,0.186335404,22,26,54,6,46,0,10,6,Human,1,6,0,0,H<D=AI,6,11,-4,0,0,4,0,0,0,0.4,0.4,0,1,0,0
55,1,0n1jcfs5,2.16,1,0,1,1,1,1,1,1,1,0.6,I read the instructions,41,Male,Bachelor,"Working (part-time, full-time, self-employed)",2,4,Not at all,2,10.73333333,0.186335404,22,26,55,6,47,0,6,12,AI,0,6,1,1,AI<D<H,3,7,6,0,2,4,0,0,1,0.6,1,0,1,0,0
56,1,0n1jcfs5,2.16,1,0,1,1,1,1,1,1,1,0.6,I read the instructions,41,Male,Bachelor,"Working (part-time, full-time, self-employed)",2,4,Not at all,2,10.73333333,0.186335404,22,26,56,6,48,0,12,4,Human,1,4,0,1,H<D<AI,8,1,-8,1,2,6,0,0,0,0.8,0.666666667,0,1,0,0
57,2,27492qbm,2.68,0,0,1,1,1,1,1,-1,1,1,I read the instructions,52,Male,Bachelor,"Working (part-time, full-time, self-employed)",1,3,Not at all,4.233333333,10.63333333,0.398119122,24,24,57,0,a,1,11,17,AI,0,11,1,1,D<AI<H,1,10,6,0,1,1,0,1,0,0.6,0.545454545,0,0,0,0
58,2,27492qbm,2.68,0,0,1,1,1,1,1,-1,1,1,I read the instructions,52,Male,Bachelor,"Working (part-time, full-time, self-employed)",1,3,Not at all,4.233333333,10.63333333,0.398119122,24,24,58,0,b,1,15,12,Human,1,12,0,0,D<H<AI,2,7,-3,1,2,2,0,1,1,0.3,0.2,0,0,0,0
59,2,27492qbm,2.68,0,0,1,1,1,1,1,-1,1,1,I read the instructions,52,Male,Bachelor,"Working (part-time, full-time, self-employed)",1,3,Not at all,4.233333333,10.63333333,0.398119122,24,24,59,0,c,1,9,11,Human,1,11,1,0,AI<D<H,3,12,2,1,1,1,1,0,0,0.2,0.222222222,0,0,0,0
60,2,27492qbm,2.68,0,0,1,1,1,1,1,-1,1,1,I read the instructions,52,Male,Bachelor,"Working (part-time, full-time, self-employed)",1,3,Not at all,4.233333333,10.63333333,0.398119122,24,24,60,0,d,1,17,11,Human,1,11,0,1,D<H<AI,2,15,-6,0,1,1,0,1,1,0.6,0.352941176,0,0,0,0
61,2,27492qbm,2.68,0,0,1,1,1,1,1,-1,1,1,I read the instructions,52,Male,Bachelor,"Working (part-time, full-time, self-employed)",1,3,Not at all,4.233333333,10.63333333,0.398119122,24,24,61,0,e,1,10,13,AI,0,10,1,0,D=AI<H,4,7,3,0,0,0,0,1,0,0.3,0.3,0,0,0,0
62,2,27492qbm,2.68,0,0,1,1,1,1,1,-1,1,1,I read the instructions,52,Male,Bachelor,"Working (part-time, full-time, self-employed)",1,3,Not at all,4.233333333,10.63333333,0.398119122,24,24,62,0,f,1,17,10,Human,1,10,0,1,D=H<AI,5,11,-7,1,0,0,0,1,1,0.7,0.411764706,0,0,0,0
63,2,27492qbm,2.68,0,0,1,1,1,1,1,-1,1,1,I read the instructions,52,Male,Bachelor,"Working (part-time, full-time, self-employed)",1,3,Not at all,4.233333333,10.63333333,0.398119122,24,24,63,0,g,1,12,18,AI,0,12,1,1,D<AI<H,1,16,6,1,2,2,0,1,0,0.6,0.5,0,0,0,0
64,2,27492qbm,2.68,0,0,1,1,1,1,1,-1,1,1,I read the instructions,52,Male,Bachelor,"Working (part-time, full-time, self-employed)",1,3,Not at all,4.233333333,10.63333333,0.398119122,24,24,64,0,h,1,10,9,AI,0,10,0,0,H<D=AI,6,15,-1,0,0,0,0,1,0,0.1,0.1,0,0,0,0
65,2,27492qbm,2.68,0,0,1,1,1,1,1,-1,1,1,I read the instructions,52,Male,Bachelor,"Working (part-time, full-time, self-employed)",1,3,Not at all,4.233333333,10.63333333,0.398119122,24,24,65,1,1,0,8,4,AI,0,8,0,0,H<AI<D,7,5,-4,1,2,2,0,1,0,0.4,0.5,1,0,1,1
66,2,27492qbm,2.68,0,0,1,1,1,1,1,-1,1,1,I read the instructions,52,Male,Bachelor,"Working (part-time, full-time, self-employed)",1,3,Not at all,4.233333333,10.63333333,0.398119122,24,24,66,1,2,0,15,9,Human,1,9,0,1,H<D<AI,8,11,-6,1,1,1,0,1,1,0.6,0.4,1,0,0,1
67,2,27492qbm,2.68,0,0,1,1,1,1,1,-1,1,1,I read the instructions,52,Male,Bachelor,"Working (part-time, full-time, self-employed)",1,3,Not at all,4.233333333,10.63333333,0.398119122,24,24,67,1,3,0,7,10,Human,1,10,1,0,AI<D=H,9,8,3,0,0,0,0,1,1,0.3,0.428571429,1,0,0,0
68,2,27492qbm,2.68,0,0,1,1,1,1,1,-1,1,1,I read the instructions,52,Male,Bachelor,"Working (part-time, full-time, self-employed)",1,3,Not at all,4.233333333,10.63333333,0.398119122,24,24,68,1,4,0,14,24,AI,0,14,1,1,D<AI<H,1,15,10,0,4,4,0,1,0,1,0.714285714,1,0,0,0
69,2,27492qbm,2.68,0,0,1,1,1,1,1,-1,1,1,I read the instructions,52,Male,Bachelor,"Working (part-time, full-time, self-employed)",1,3,Not at all,4.233333333,10.63333333,0.398119122,24,24,69,1,5,0,7,4,AI,0,7,0,0,H<AI<D,7,6,-3,0,3,3,0,1,0,0.3,0.428571429,1,0,0,0
70,2,27492qbm,2.68,0,0,1,1,1,1,1,-1,1,1,I read the instructions,52,Male,Bachelor,"Working (part-time, full-time, self-employed)",1,3,Not at all,4.233333333,10.63333333,0.398119122,24,24,70,1,6,0,13,19,AI,0,13,1,1,D<AI<H,1,5,6,0,3,3,0,1,0,0.6,0.461538462,1,0,0,0
71,2,27492qbm,2.68,0,0,1,1,1,1,1,-1,1,1,I read the instructions,52,Male,Bachelor,"Working (part-time, full-time, self-employed)",1,3,Not at all,4.233333333,10.63333333,0.398119122,24,24,71,1,7,0,6,14,Human,1,14,1,1,AI<D<H,3,17,8,1,4,4,1,0,0,0.8,1.333333333,1,0,0,0
72,2,27492qbm,2.68,0,0,1,1,1,1,1,-1,1,1,I read the instructions,52,Male,Bachelor,"Working (part-time, full-time, self-employed)",1,3,Not at all,4.233333333,10.63333333,0.398119122,24,24,72,1,8,0,26,17,Human,1,17,0,1,D<H<AI,2,10,-9,1,7,7,0,1,1,0.9,0.346153846,1,0,0,0
73,2,27492qbm,2.68,0,0,1,1,1,1,1,-1,1,1,I read the instructions,52,Male,Bachelor,"Working (part-time, full-time, self-employed)",1,3,Not at all,4.233333333,10.63333333,0.398119122,24,24,73,2,9,0,12,8,AI,0,12,0,0,H<D<AI,8,17,-4,0,2,2,1,0,0,0.4,0.333333333,0,0,1,1
74,2,27492qbm,2.68,0,0,1,1,1,1,1,-1,1,1,I read the instructions,52,Male,Bachelor,"Working (part-time, full-time, self-employed)",1,3,Not at all,4.233333333,10.63333333,0.398119122,24,24,74,2,10,0,18,26,AI,0,18,1,1,D<AI<H,1,10,8,0,8,8,0,1,0,0.8,0.444444444,0,0,0,1
75,2,27492qbm,2.68,0,0,1,1,1,1,1,-1,1,1,I read the instructions,52,Male,Bachelor,"Working (part-time, full-time, self-employed)",1,3,Not at all,4.233333333,10.63333333,0.398119122,24,24,75,2,11,0,17,14,AI,0,17,0,0,D<H<AI,2,10,-3,1,4,7,0,0,1,0.3,0.176470588,0,0,0,0
76,2,27492qbm,2.68,0,0,1,1,1,1,1,-1,1,1,I read the instructions,52,Male,Bachelor,"Working (part-time, full-time, self-employed)",1,3,Not at all,4.233333333,10.63333333,0.398119122,24,24,76,2,12,0,10,8,Human,1,8,0,0,H<D=AI,6,4,-2,1,0,2,0,0,0,0.2,0.2,0,0,0,0
77,2,27492qbm,2.68,0,0,1,1,1,1,1,-1,1,1,I read the instructions,52,Male,Bachelor,"Working (part-time, full-time, self-employed)",1,3,Not at all,4.233333333,10.63333333,0.398119122,24,24,77,2,13,0,14,17,AI,0,14,1,0,D<AI<H,1,10,3,0,4,4,0,1,0,0.3,0.214285714,0,0,0,0
78,2,27492qbm,2.68,0,0,1,1,1,1,1,-1,1,1,I read the instructions,52,Male,Bachelor,"Working (part-time, full-time, self-employed)",1,3,Not at all,4.233333333,10.63333333,0.398119122,24,24,78,2,14,0,9,16,Human,1,16,1,1,AI<D<H,3,6,7,0,1,6,0,0,0,0.7,0.777777778,0,0,0,0
79,2,27492qbm,2.68,0,0,1,1,1,1,1,-1,1,1,I read the instructions,52,Male,Bachelor,"Working (part-time, full-time, self-employed)",1,3,Not at all,4.233333333,10.63333333,0.398119122,24,24,79,2,15,0,14,11,Human,1,11,0,0,D<H<AI,2,13,-3,0,1,1,0,1,1,0.3,0.214285714,0,0,0,0
80,2,27492qbm,2.68,0,0,1,1,1,1,1,-1,1,1,I read the instructions,52,Male,Bachelor,"Working (part-time, full-time, self-employed)",1,3,Not at all,4.233333333,10.63333333,0.398119122,24,24,80,2,16,0,4,7,AI,0,4,1,0,AI<H<D,10,6,3,1,3,6,0,0,1,0.3,0.75,0,0,0,0
81,2,27492qbm,2.68,0,0,1,1,1,1,1,-1,1,1,I read the instructions,52,Male,Bachelor,"Working (part-time, full-time, self-employed)",1,3,Not at all,4.233333333,10.63333333,0.398119122,24,24,81,3,17,0,13,4,AI,0,13,0,1,H<D<AI,8,7,-9,1,3,3,0,1,0,0.9,0.692307692,0,0,1,1
82,2,27492qbm,2.68,0,0,1,1,1,1,1,-1,1,1,I read the instructions,52,Male,Bachelor,"Working (part-time, full-time, self-employed)",1,3,Not at all,4.233333333,10.63333333,0.398119122,24,24,82,3,18,0,5,9,Human,1,9,1,0,AI<H<D,10,6,4,0,1,1,0,1,1,0.4,0.8,0,0,0,1
83,2,27492qbm,2.68,0,0,1,1,1,1,1,-1,1,1,I read the instructions,52,Male,Bachelor,"Working (part-time, full-time, self-employed)",1,3,Not at all,4.233333333,10.63333333,0.398119122,24,24,83,3,19,0,8,12,Human,1,12,1,0,AI<D<H,3,5,4,0,2,2,1,0,0,0.4,0.5,0,0,0,0
84,2,27492qbm,2.68,0,0,1,1,1,1,1,-1,1,1,I read the instructions,52,Male,Bachelor,"Working (part-time, full-time, self-employed)",1,3,Not at all,4.233333333,10.63333333,0.398119122,24,24,84,3,20,0,14,7,AI,0,14,0,1,H<D<AI,8,9,-7,1,3,4,0,0,1,0.7,0.5,0,0,0,0
85,2,27492qbm,2.68,0,0,1,1,1,1,1,-1,1,1,I read the instructions,52,Male,Bachelor,"Working (part-time, full-time, self-employed)",1,3,Not at all,4.233333333,10.63333333,0.398119122,24,24,85,3,21,0,12,21,AI,0,12,1,1,D<AI<H,1,10,9,0,2,2,0,1,0,0.9,0.75,0,0,0,0
86,2,27492qbm,2.68,0,0,1,1,1,1,1,-1,1,1,I read the instructions,52,Male,Bachelor,"Working (part-time, full-time, self-employed)",1,3,Not at all,4.233333333,10.63333333,0.398119122,24,24,86,3,22,0,11,8,AI,0,11,0,0,H<D<AI,8,12,-3,0,1,1,0,1,0,0.3,0.272727273,0,0,0,0
87,2,27492qbm,2.68,0,0,1,1,1,1,1,-1,1,1,I read the instructions,52,Male,Bachelor,"Working (part-time, full-time, self-employed)",1,3,Not at all,4.233333333,10.63333333,0.398119122,24,24,87,3,23,0,24,17,Human,1,17,0,1,D<H<AI,2,14,-7,1,7,7,0,1,1,0.7,0.291666667,0,0,0,0
88,2,27492qbm,2.68,0,0,1,1,1,1,1,-1,1,1,I read the instructions,52,Male,Bachelor,"Working (part-time, full-time, self-employed)",1,3,Not at all,4.233333333,10.63333333,0.398119122,24,24,88,3,24,0,16,3,AI,0,16,0,1,H<D<AI,8,5,-13,1,6,6,0,1,0,1.3,0.8125,0,0,0,0
89,2,27492qbm,2.68,0,0,1,1,1,1,1,-1,1,1,I read the instructions,52,Male,Bachelor,"Working (part-time, full-time, self-employed)",1,3,Not at all,4.233333333,10.63333333,0.398119122,24,24,89,4,25,0,10,14,AI,0,10,1,0,D=AI<H,4,13,4,1,0,0,0,1,0,0.4,0.4,0,0,1,1
90,2,27492qbm,2.68,0,0,1,1,1,1,1,-1,1,1,I read the instructions,52,Male,Bachelor,"Working (part-time, full-time, self-employed)",1,3,Not at all,4.233333333,10.63333333,0.398119122,24,24,90,4,26,0,10,3,AI,0,10,0,1,H<D=AI,6,9,-7,0,0,0,0,1,0,0.7,0.7,0,0,0,1
91,2,27492qbm,2.68,0,0,1,1,1,1,1,-1,1,1,I read the instructions,52,Male,Bachelor,"Working (part-time, full-time, self-employed)",1,3,Not at all,4.233333333,10.63333333,0.398119122,24,24,91,4,27,0,1,9,Human,1,9,1,1,AI<H<D,10,10,8,1,1,1,0,1,1,0.8,8,0,0,0,0
92,2,27492qbm,2.68,0,0,1,1,1,1,1,-1,1,1,I read the instructions,52,Male,Bachelor,"Working (part-time, full-time, self-employed)",1,3,Not at all,4.233333333,10.63333333,0.398119122,24,24,92,4,28,0,14,13,Human,1,13,0,0,D<H<AI,2,20,-1,0,3,3,0,1,1,0.1,0.071428571,0,0,0,0
93,2,27492qbm,2.68,0,0,1,1,1,1,1,-1,1,1,I read the instructions,52,Male,Bachelor,"Working (part-time, full-time, self-employed)",1,3,Not at all,4.233333333,10.63333333,0.398119122,24,24,93,4,29,0,12,9,Human,1,9,0,0,H<D<AI,8,10,-3,1,1,1,0,1,1,0.3,0.25,0,0,0,0
94,2,27492qbm,2.68,0,0,1,1,1,1,1,-1,1,1,I read the instructions,52,Male,Bachelor,"Working (part-time, full-time, self-employed)",1,3,Not at all,4.233333333,10.63333333,0.398119122,24,24,94,4,30,0,14,16,AI,0,14,1,0,D<AI<H,1,10,2,0,4,4,0,1,0,0.2,0.142857143,0,0,0,0
95,2,27492qbm,2.68,0,0,1,1,1,1,1,-1,1,1,I read the instructions,52,Male,Bachelor,"Working (part-time, full-time, self-employed)",1,3,Not at all,4.233333333,10.63333333,0.398119122,24,24,95,4,31,0,6,7,Human,1,7,1,0,AI<H<D,10,18,1,1,3,3,0,1,1,0.1,0.166666667,0,0,0,0
96,2,27492qbm,2.68,0,0,1,1,1,1,1,-1,1,1,I read the instructions,52,Male,Bachelor,"Working (part-time, full-time, self-employed)",1,3,Not at all,4.233333333,10.63333333,0.398119122,24,24,96,4,32,0,26,20,Human,1,20,0,1,D<H<AI,2,10,-6,1,10,10,0,1,1,0.6,0.230769231,0,0,0,0
97,2,27492qbm,2.68,0,0,1,1,1,1,1,-1,1,1,I read the instructions,52,Male,Bachelor,"Working (part-time, full-time, self-employed)",1,3,Not at all,4.233333333,10.63333333,0.398119122,24,24,97,5,33,0,10,12,AI,0,10,1,0,D=AI<H,4,19,2,1,0,0,0,1,0,0.2,0.2,0,0,1,1
98,2,27492qbm,2.68,0,0,1,1,1,1,1,-1,1,1,I read the instructions,52,Male,Bachelor,"Working (part-time, full-time, self-employed)",1,3,Not at all,4.233333333,10.63333333,0.398119122,24,24,98,5,34,0,17,15,Human,1,15,0,0,D<H<AI,2,19,-2,0,5,5,0,1,1,0.2,0.117647059,0,0,0,1
99,2,27492qbm,2.68,0,0,1,1,1,1,1,-1,1,1,I read the instructions,52,Male,Bachelor,"Working (part-time, full-time, self-employed)",1,3,Not at all,4.233333333,10.63333333,0.398119122,24,24,99,5,35,0,6,2,AI,0,6,0,0,H<AI<D,7,10,-4,0,4,4,0,1,0,0.4,0.666666667,0,0,0,0
100,2,27492qbm,2.68,0,0,1,1,1,1,1,-1,1,1,I read the instructions,52,Male,Bachelor,"Working (part-time, full-time, self-employed)",1,3,Not at all,4.233333333,10.63333333,0.398119122,24,24,100,5,36,0,8,15,AI,0,8,1,1,AI<D<H,3,7,7,0,2,2,0,1,0,0.7,0.875,0,0,0,0
101,2,27492qbm,2.68,0,0,1,1,1,1,1,-1,1,1,I read the instructions,52,Male,Bachelor,"Working (part-time, full-time, self-employed)",1,3,Not at all,4.233333333,10.63333333,0.398119122,24,24,101,5,37,0,12,23,AI,0,12,1,1,D<AI<H,1,13,11,0,2,2,0,1,0,1.1,0.916666667,0,0,0,0
102,2,27492qbm,2.68,0,0,1,1,1,1,1,-1,1,1,I read the instructions,52,Male,Bachelor,"Working (part-time, full-time, self-employed)",1,3,Not at all,4.233333333,10.63333333,0.398119122,24,24,102,5,38,0,19,11,Human,1,11,0,1,D<H<AI,2,9,-8,1,1,1,0,1,1,0.8,0.421052632,0,0,0,0
103,2,27492qbm,2.68,0,0,1,1,1,1,1,-1,1,1,I read the instructions,52,Male,Bachelor,"Working (part-time, full-time, self-employed)",1,3,Not at all,4.233333333,10.63333333,0.398119122,24,24,103,5,39,0,8,11,Human,1,11,1,0,AI<D<H,3,7,3,0,1,1,0,1,1,0.3,0.375,0,0,0,0
104,2,27492qbm,2.68,0,0,1,1,1,1,1,-1,1,1,I read the instructions,52,Male,Bachelor,"Working (part-time, full-time, self-employed)",1,3,Not at all,4.233333333,10.63333333,0.398119122,24,24,104,5,40,0,13,24,AI,0,13,1,1,D<AI<H,1,20,11,1,3,3,0,1,0,1.1,0.846153846,0,0,0,0
105,2,27492qbm,2.68,0,0,1,1,1,1,1,-1,1,1,I read the instructions,52,Male,Bachelor,"Working (part-time, full-time, self-employed)",1,3,Not at all,4.233333333,10.63333333,0.398119122,24,24,105,6,41,0,17,9,Human,1,9,0,1,H<D<AI,8,10,-8,1,1,1,0,1,1,0.8,0.470588235,0,1,1,1
106,2,27492qbm,2.68,0,0,1,1,1,1,1,-1,1,1,I read the instructions,52,Male,Bachelor,"Working (part-time, full-time, self-employed)",1,3,Not at all,4.233333333,10.63333333,0.398119122,24,24,106,6,42,0,9,12,Human,1,12,1,0,AI<D<H,3,10,3,0,1,2,0,0,0,0.3,0.333333333,0,1,0,1
107,2,27492qbm,2.68,0,0,1,1,1,1,1,-1,1,1,I read the instructions,52,Male,Bachelor,"Working (part-time, full-time, self-employed)",1,3,Not at all,4.233333333,10.63333333,0.398119122,24,24,107,6,43,0,3,6,Human,1,6,1,0,AI<H<D,10,10,3,1,4,4,0,1,1,0.3,1,0,1,0,0
108,2,27492qbm,2.68,0,0,1,1,1,1,1,-1,1,1,I read the instructions,52,Male,Bachelor,"Working (part-time, full-time, self-employed)",1,3,Not at all,4.233333333,10.63333333,0.398119122,24,24,108,6,44,0,7,14,Human,1,14,1,1,AI<D<H,3,10,7,0,3,4,0,0,0,0.7,1,0,1,0,0
109,2,27492qbm,2.68,0,0,1,1,1,1,1,-1,1,1,I read the instructions,52,Male,Bachelor,"Working (part-time, full-time, self-employed)",1,3,Not at all,4.233333333,10.63333333,0.398119122,24,24,109,6,45,0,20,14,Human,1,14,0,1,D<H<AI,2,22,-6,0,4,4,0,1,1,0.6,0.3,0,1,0,0
110,2,27492qbm,2.68,0,0,1,1,1,1,1,-1,1,1,I read the instructions,52,Male,Bachelor,"Working (part-time, full-time, self-employed)",1,3,Not at all,4.233333333,10.63333333,0.398119122,24,24,110,6,46,0,10,6,AI,0,10,0,0,H<D=AI,6,11,-4,0,0,0,0,1,0,0.4,0.4,0,1,0,0
111,2,27492qbm,2.68,0,0,1,1,1,1,1,-1,1,1,I read the instructions,52,Male,Bachelor,"Working (part-time, full-time, self-employed)",1,3,Not at all,4.233333333,10.63333333,0.398119122,24,24,111,6,47,0,6,12,Human,1,12,1,1,AI<D<H,3,7,6,0,2,2,0,1,1,0.6,1,0,1,0,0
112,2,27492qbm,2.68,0,0,1,1,1,1,1,-1,1,1,I read the instructions,52,Male,Bachelor,"Working (part-time, full-time, self-employed)",1,3,Not at all,4.233333333,10.63333333,0.398119122,24,24,112,6,48,0,12,4,AI,0,12,0,1,H<D<AI,8,1,-8,1,2,2,0,1,0,0.8,0.666666667,0,1,0,0
113,3,2r3idpfm,2.32,1,0,1,1,1,2,1,1,1,0.8,I read the instructions,38,Male,Bachelor,"Working (part-time, full-time, self-employed)",2,2,A few times,9.683333333,17.8,0.544007491,24,24,113,0,a,1,11,17,Human,1,17,1,1,D<AI<H,1,10,6,0,1,7,0,0,0,0.6,0.545454545,0,0,0,0
114,3,2r3idpfm,2.32,1,0,1,1,1,2,1,1,1,0.8,I read the instructions,38,Male,Bachelor,"Working (part-time, full-time, self-employed)",2,2,A few times,9.683333333,17.8,0.544007491,24,24,114,0,b,1,15,12,AI,0,15,0,0,D<H<AI,2,7,-3,1,2,5,0,0,1,0.3,0.2,0,0,0,0
115,3,2r3idpfm,2.32,1,0,1,1,1,2,1,1,1,0.8,I read the instructions,38,Male,Bachelor,"Working (part-time, full-time, self-employed)",2,2,A few times,9.683333333,17.8,0.544007491,24,24,115,0,c,1,9,11,Human,1,11,1,0,AI<D<H,3,12,2,1,1,1,1,0,0,0.2,0.222222222,0,0,0,0
116,3,2r3idpfm,2.32,1,0,1,1,1,2,1,1,1,0.8,I read the instructions,38,Male,Bachelor,"Working (part-time, full-time, self-employed)",2,2,A few times,9.683333333,17.8,0.544007491,24,24,116,0,d,1,17,11,AI,0,17,0,1,D<H<AI,2,15,-6,0,1,7,0,0,1,0.6,0.352941176,0,0,0,0
117,3,2r3idpfm,2.32,1,0,1,1,1,2,1,1,1,0.8,I read the instructions,38,Male,Bachelor,"Working (part-time, full-time, self-employed)",2,2,A few times,9.683333333,17.8,0.544007491,24,24,117,0,e,1,10,13,Human,1,13,1,0,D=AI<H,4,7,3,0,0,3,0,0,0,0.3,0.3,0,0,0,0
118,3,2r3idpfm,2.32,1,0,1,1,1,2,1,1,1,0.8,I read the instructions,38,Male,Bachelor,"Working (part-time, full-time, self-employed)",2,2,A few times,9.683333333,17.8,0.544007491,24,24,118,0,f,1,17,10,Human,1,10,0,1,D=H<AI,5,11,-7,1,0,0,0,1,1,0.7,0.411764706,0,0,0,0
119,3,2r3idpfm,2.32,1,0,1,1,1,2,1,1,1,0.8,I read the instructions,38,Male,Bachelor,"Working (part-time, full-time, self-employed)",2,2,A few times,9.683333333,17.8,0.544007491,24,24,119,0,g,1,12,18,AI,0,12,1,1,D<AI<H,1,16,6,1,2,2,0,1,0,0.6,0.5,0,0,0,0
120,3,2r3idpfm,2.32,1,0,1,1,1,2,1,1,1,0.8,I read the instructions,38,Male,Bachelor,"Working (part-time, full-time, self-employed)",2,2,A few times,9.683333333,17.8,0.544007491,24,24,120,0,h,1,10,9,AI,0,10,0,0,H<D=AI,6,15,-1,0,0,0,0,1,0,0.1,0.1,0,0,0,0
121,3,2r3idpfm,2.32,1,0,1,1,1,2,1,1,1,0.8,I read the instructions,38,Male,Bachelor,"Working (part-time, full-time, self-employed)",2,2,A few times,9.683333333,17.8,0.544007491,24,24,121,1,1,0,8,4,AI,0,8,0,0,H<AI<D,7,5,-4,1,2,2,0,1,0,0.4,0.5,1,0,1,1
122,3,2r3idpfm,2.32,1,0,1,1,1,2,1,1,1,0.8,I read the instructions,38,Male,Bachelor,"Working (part-time, full-time, self-employed)",2,2,A few times,9.683333333,17.8,0.544007491,24,24,122,1,2,0,15,9,Human,1,9,0,1,H<D<AI,8,11,-6,1,1,1,0,1,1,0.6,0.4,1,0,0,1
123,3,2r3idpfm,2.32,1,0,1,1,1,2,1,1,1,0.8,I read the instructions,38,Male,Bachelor,"Working (part-time, full-time, self-employed)",2,2,A few times,9.683333333,17.8,0.544007491,24,24,123,1,3,0,7,10,Human,1,10,1,0,AI<D=H,9,8,3,0,0,0,0,1,1,0.3,0.428571429,1,0,0,0
124,3,2r3idpfm,2.32,1,0,1,1,1,2,1,1,1,0.8,I read the instructions,38,Male,Bachelor,"Working (part-time, full-time, self-employed)",2,2,A few times,9.683333333,17.8,0.544007491,24,24,124,1,4,0,14,24,AI,0,14,1,1,D<AI<H,1,15,10,0,4,4,0,1,0,1,0.714285714,1,0,0,0
125,3,2r3idpfm,2.32,1,0,1,1,1,2,1,1,1,0.8,I read the instructions,38,Male,Bachelor,"Working (part-time, full-time, self-employed)",2,2,A few times,9.683333333,17.8,0.544007491,24,24,125,1,5,0,7,4,AI,0,7,0,0,H<AI<D,7,6,-3,0,3,3,0,1,0,0.3,0.428571429,1,0,0,0
126,3,2r3idpfm,2.32,1,0,1,1,1,2,1,1,1,0.8,I read the instructions,38,Male,Bachelor,"Working (part-time, full-time, self-employed)",2,2,A few times,9.683333333,17.8,0.544007491,24,24,126,1,6,0,13,19,AI,0,13,1,1,D<AI<H,1,5,6,0,3,3,0,1,0,0.6,0.461538462,1,0,0,0
127,3,2r3idpfm,2.32,1,0,1,1,1,2,1,1,1,0.8,I read the instructions,38,Male,Bachelor,"Working (part-time, full-time, self-employed)",2,2,A few times,9.683333333,17.8,0.544007491,24,24,127,1,7,0,6,14,Human,1,14,1,1,AI<D<H,3,17,8,1,4,4,1,0,0,0.8,1.333333333,1,0,0,0
128,3,2r3idpfm,2.32,1,0,1,1,1,2,1,1,1,0.8,I read the instructions,38,Male,Bachelor,"Working (part-time, full-time, self-employed)",2,2,A few times,9.683333333,17.8,0.544007491,24,24,128,1,8,0,26,17,Human,1,17,0,1,D<H<AI,2,10,-9,1,7,7,0,1,1,0.9,0.346153846,1,0,0,0
129,3,2r3idpfm,2.32,1,0,1,1,1,2,1,1,1,0.8,I read the instructions,38,Male,Bachelor,"Working (part-time, full-time, self-employed)",2,2,A few times,9.683333333,17.8,0.544007491,24,24,129,2,9,0,12,8,Human,1,8,0,0,H<D<AI,8,17,-4,0,2,2,1,0,0,0.4,0.333333333,0,0,1,1
130,3,2r3idpfm,2.32,1,0,1,1,1,2,1,1,1,0.8,I read the instructions,38,Male,Bachelor,"Working (part-time, full-time, self-employed)",2,2,A few times,9.683333333,17.8,0.544007491,24,24,130,2,10,0,18,26,AI,0,18,1,1,D<AI<H,1,10,8,0,8,8,0,1,0,0.8,0.444444444,0,0,0,1
131,3,2r3idpfm,2.32,1,0,1,1,1,2,1,1,1,0.8,I read the instructions,38,Male,Bachelor,"Working (part-time, full-time, self-employed)",2,2,A few times,9.683333333,17.8,0.544007491,24,24,131,2,11,0,17,14,AI,0,17,0,0,D<H<AI,2,10,-3,1,4,7,0,0,1,0.3,0.176470588,0,0,0,0
132,3,2r3idpfm,2.32,1,0,1,1,1,2,1,1,1,0.8,I read the instructions,38,Male,Bachelor,"Working (part-time, full-time, self-employed)",2,2,A few times,9.683333333,17.8,0.544007491,24,24,132,2,12,0,10,8,Human,1,8,0,0,H<D=AI,6,4,-2,1,0,2,0,0,0,0.2,0.2,0,0,0,0
133,3,2r3idpfm,2.32,1,0,1,1,1,2,1,1,1,0.8,I read the instructions,38,Male,Bachelor,"Working (part-time, full-time, self-employed)",2,2,A few times,9.683333333,17.8,0.544007491,24,24,133,2,13,0,14,17,Human,1,17,1,0,D<AI<H,1,10,3,0,4,7,0,0,0,0.3,0.214285714,0,0,0,0
134,3,2r3idpfm,2.32,1,0,1,1,1,2,1,1,1,0.8,I read the instructions,38,Male,Bachelor,"Working (part-time, full-time, self-employed)",2,2,A few times,9.683333333,17.8,0.544007491,24,24,134,2,14,0,9,16,Human,1,16,1,1,AI<D<H,3,6,7,0,1,6,0,0,0,0.7,0.777777778,0,0,0,0
135,3,2r3idpfm,2.32,1,0,1,1,1,2,1,1,1,0.8,I read the instructions,38,Male,Bachelor,"Working (part-time, full-time, self-employed)",2,2,A few times,9.683333333,17.8,0.544007491,24,24,135,2,15,0,14,11,AI,0,14,0,0,D<H<AI,2,13,-3,0,1,4,0,0,1,0.3,0.214285714,0,0,0,0
136,3,2r3idpfm,2.32,1,0,1,1,1,2,1,1,1,0.8,I read the instructions,38,Male,Bachelor,"Working (part-time, full-time, self-employed)",2,2,A few times,9.683333333,17.8,0.544007491,24,24,136,2,16,0,4,7,AI,0,4,1,0,AI<H<D,10,6,3,1,3,6,0,0,1,0.3,0.75,0,0,0,0
137,3,2r3idpfm,2.32,1,0,1,1,1,2,1,1,1,0.8,I read the instructions,38,Male,Bachelor,"Working (part-time, full-time, self-employed)",2,2,A few times,9.683333333,17.8,0.544007491,24,24,137,3,17,0,13,4,AI,0,13,0,1,H<D<AI,8,7,-9,1,3,3,0,1,0,0.9,0.692307692,0,0,1,1
138,3,2r3idpfm,2.32,1,0,1,1,1,2,1,1,1,0.8,I read the instructions,38,Male,Bachelor,"Working (part-time, full-time, self-employed)",2,2,A few times,9.683333333,17.8,0.544007491,24,24,138,3,18,0,5,9,Human,1,9,1,0,AI<H<D,10,6,4,0,1,1,0,1,1,0.4,0.8,0,0,0,1
139,3,2r3idpfm,2.32,1,0,1,1,1,2,1,1,1,0.8,I read the instructions,38,Male,Bachelor,"Working (part-time, full-time, self-employed)",2,2,A few times,9.683333333,17.8,0.544007491,24,24,139,3,19,0,8,12,AI,0,8,1,0,AI<D<H,3,5,4,0,2,2,1,0,0,0.4,0.5,0,0,0,0
140,3,2r3idpfm,2.32,1,0,1,1,1,2,1,1,1,0.8,I read the instructions,38,Male,Bachelor,"Working (part-time, full-time, self-employed)",2,2,A few times,9.683333333,17.8,0.544007491,24,24,140,3,20,0,14,7,Human,1,7,0,1,H<D<AI,8,9,-7,1,3,3,0,1,1,0.7,0.5,0,0,0,0
141,3,2r3idpfm,2.32,1,0,1,1,1,2,1,1,1,0.8,I read the instructions,38,Male,Bachelor,"Working (part-time, full-time, self-employed)",2,2,A few times,9.683333333,17.8,0.544007491,24,24,141,3,21,0,12,21,Human,1,21,1,1,D<AI<H,1,10,9,0,2,11,0,0,0,0.9,0.75,0,0,0,0
142,3,2r3idpfm,2.32,1,0,1,1,1,2,1,1,1,0.8,I read the instructions,38,Male,Bachelor,"Working (part-time, full-time, self-employed)",2,2,A few times,9.683333333,17.8,0.544007491,24,24,142,3,22,0,11,8,AI,0,11,0,0,H<D<AI,8,12,-3,0,1,1,0,1,0,0.3,0.272727273,0,0,0,0
143,3,2r3idpfm,2.32,1,0,1,1,1,2,1,1,1,0.8,I read the instructions,38,Male,Bachelor,"Working (part-time, full-time, self-employed)",2,2,A few times,9.683333333,17.8,0.544007491,24,24,143,3,23,0,24,17,Human,1,17,0,1,D<H<AI,2,14,-7,1,7,7,0,1,1,0.7,0.291666667,0,0,0,0
144,3,2r3idpfm,2.32,1,0,1,1,1,2,1,1,1,0.8,I read the instructions,38,Male,Bachelor,"Working (part-time, full-time, self-employed)",2,2,A few times,9.683333333,17.8,0.544007491,24,24,144,3,24,0,16,3,Human,1,3,0,1,H<D<AI,8,5,-13,1,6,7,0,0,0,1.3,0.8125,0,0,0,0
145,3,2r3idpfm,2.32,1,0,1,1,1,2,1,1,1,0.8,I read the instructions,38,Male,Bachelor,"Working (part-time, full-time, self-employed)",2,2,A few times,9.683333333,17.8,0.544007491,24,24,145,4,25,0,10,14,AI,0,10,1,0,D=AI<H,4,13,4,1,0,0,0,1,0,0.4,0.4,0,0,1,1
146,3,2r3idpfm,2.32,1,0,1,1,1,2,1,1,1,0.8,I read the instructions,38,Male,Bachelor,"Working (part-time, full-time, self-employed)",2,2,A few times,9.683333333,17.8,0.544007491,24,24,146,4,26,0,10,3,AI,0,10,0,1,H<D=AI,6,9,-7,0,0,0,0,1,0,0.7,0.7,0,0,0,1
147,3,2r3idpfm,2.32,1,0,1,1,1,2,1,1,1,0.8,I read the instructions,38,Male,Bachelor,"Working (part-time, full-time, self-employed)",2,2,A few times,9.683333333,17.8,0.544007491,24,24,147,4,27,0,1,9,Human,1,9,1,1,AI<H<D,10,10,8,1,1,1,0,1,1,0.8,8,0,0,0,0
148,3,2r3idpfm,2.32,1,0,1,1,1,2,1,1,1,0.8,I read the instructions,38,Male,Bachelor,"Working (part-time, full-time, self-employed)",2,2,A few times,9.683333333,17.8,0.544007491,24,24,148,4,28,0,14,13,Human,1,13,0,0,D<H<AI,2,20,-1,0,3,3,0,1,1,0.1,0.071428571,0,0,0,0
149,3,2r3idpfm,2.32,1,0,1,1,1,2,1,1,1,0.8,I read the instructions,38,Male,Bachelor,"Working (part-time, full-time, self-employed)",2,2,A few times,9.683333333,17.8,0.544007491,24,24,149,4,29,0,12,9,AI,0,12,0,0,H<D<AI,8,10,-3,1,1,2,0,0,1,0.3,0.25,0,0,0,0
150,3,2r3idpfm,2.32,1,0,1,1,1,2,1,1,1,0.8,I read the instructions,38,Male,Bachelor,"Working (part-time, full-time, self-employed)",2,2,A few times,9.683333333,17.8,0.544007491,24,24,150,4,30,0,14,16,Human,1,16,1,0,D<AI<H,1,10,2,0,4,6,0,0,0,0.2,0.142857143,0,0,0,0
151,3,2r3idpfm,2.32,1,0,1,1,1,2,1,1,1,0.8,I read the instructions,38,Male,Bachelor,"Working (part-time, full-time, self-employed)",2,2,A few times,9.683333333,17.8,0.544007491,24,24,151,4,31,0,6,7,Human,1,7,1,0,AI<H<D,10,18,1,1,3,3,0,1,1,0.1,0.166666667,0,0,0,0
152,3,2r3idpfm,2.32,1,0,1,1,1,2,1,1,1,0.8,I read the instructions,38,Male,Bachelor,"Working (part-time, full-time, self-employed)",2,2,A few times,9.683333333,17.8,0.544007491,24,24,152,4,32,0,26,20,AI,0,26,0,1,D<H<AI,2,10,-6,1,10,16,0,0,1,0.6,0.230769231,0,0,0,0
153,3,2r3idpfm,2.32,1,0,1,1,1,2,1,1,1,0.8,I read the instructions,38,Male,Bachelor,"Working (part-time, full-time, self-employed)",2,2,A few times,9.683333333,17.8,0.544007491,24,24,153,5,33,0,10,12,AI,0,10,1,0,D=AI<H,4,19,2,1,0,0,0,1,0,0.2,0.2,0,0,1,1
154,3,2r3idpfm,2.32,1,0,1,1,1,2,1,1,1,0.8,I read the instructions,38,Male,Bachelor,"Working (part-time, full-time, self-employed)",2,2,A few times,9.683333333,17.8,0.544007491,24,24,154,5,34,0,17,15,Human,1,15,0,0,D<H<AI,2,19,-2,0,5,5,0,1,1,0.2,0.117647059,0,0,0,1
155,3,2r3idpfm,2.32,1,0,1,1,1,2,1,1,1,0.8,I read the instructions,38,Male,Bachelor,"Working (part-time, full-time, self-employed)",2,2,A few times,9.683333333,17.8,0.544007491,24,24,155,5,35,0,6,2,AI,0,6,0,0,H<AI<D,7,10,-4,0,4,4,0,1,0,0.4,0.666666667,0,0,0,0
156,3,2r3idpfm,2.32,1,0,1,1,1,2,1,1,1,0.8,I read the instructions,38,Male,Bachelor,"Working (part-time, full-time, self-employed)",2,2,A few times,9.683333333,17.8,0.544007491,24,24,156,5,36,0,8,15,AI,0,8,1,1,AI<D<H,3,7,7,0,2,2,0,1,0,0.7,0.875,0,0,0,0
157,3,2r3idpfm,2.32,1,0,1,1,1,2,1,1,1,0.8,I read the instructions,38,Male,Bachelor,"Working (part-time, full-time, self-employed)",2,2,A few times,9.683333333,17.8,0.544007491,24,24,157,5,37,0,12,23,AI,0,12,1,1,D<AI<H,1,13,11,0,2,2,0,1,0,1.1,0.916666667,0,0,0,0
158,3,2r3idpfm,2.32,1,0,1,1,1,2,1,1,1,0.8,I read the instructions,38,Male,Bachelor,"Working (part-time, full-time, self-employed)",2,2,A few times,9.683333333,17.8,0.544007491,24,24,158,5,38,0,19,11,AI,0,19,0,1,D<H<AI,2,9,-8,1,1,9,0,0,1,0.8,0.421052632,0,0,0,0
159,3,2r3idpfm,2.32,1,0,1,1,1,2,1,1,1,0.8,I read the instructions,38,Male,Bachelor,"Working (part-time, full-time, self-employed)",2,2,A few times,9.683333333,17.8,0.544007491,24,24,159,5,39,0,8,11,Human,1,11,1,0,AI<D<H,3,7,3,0,1,1,0,1,1,0.3,0.375,0,0,0,0
160,3,2r3idpfm,2.32,1,0,1,1,1,2,1,1,1,0.8,I read the instructions,38,Male,Bachelor,"Working (part-time, full-time, self-employed)",2,2,A few times,9.683333333,17.8,0.544007491,24,24,160,5,40,0,13,24,Human,1,24,1,1,D<AI<H,1,20,11,1,3,14,0,0,0,1.1,0.846153846,0,0,0,0
161,3,2r3idpfm,2.32,1,0,1,1,1,2,1,1,1,0.8,I read the instructions,38,Male,Bachelor,"Working (part-time, full-time, self-employed)",2,2,A few times,9.683333333,17.8,0.544007491,24,24,161,6,41,0,17,9,Human,1,9,0,1,H<D<AI,8,10,-8,1,1,1,0,1,1,0.8,0.470588235,0,1,1,1
162,3,2r3idpfm,2.32,1,0,1,1,1,2,1,1,1,0.8,I read the instructions,38,Male,Bachelor,"Working (part-time, full-time, self-employed)",2,2,A few times,9.683333333,17.8,0.544007491,24,24,162,6,42,0,9,12,AI,0,9,1,0,AI<D<H,3,10,3,0,1,1,0,1,0,0.3,0.333333333,0,1,0,1
163,3,2r3idpfm,2.32,1,0,1,1,1,2,1,1,1,0.8,I read the instructions,38,Male,Bachelor,"Working (part-time, full-time, self-employed)",2,2,A few times,9.683333333,17.8,0.544007491,24,24,163,6,43,0,3,6,AI,0,3,1,0,AI<H<D,10,10,3,1,4,7,0,0,1,0.3,1,0,1,0,0
164,3,2r3idpfm,2.32,1,0,1,1,1,2,1,1,1,0.8,I read the instructions,38,Male,Bachelor,"Working (part-time, full-time, self-employed)",2,2,A few times,9.683333333,17.8,0.544007491,24,24,164,6,44,0,7,14,AI,0,7,1,1,AI<D<H,3,10,7,0,3,3,0,1,0,0.7,1,0,1,0,0
165,3,2r3idpfm,2.32,1,0,1,1,1,2,1,1,1,0.8,I read the instructions,38,Male,Bachelor,"Working (part-time, full-time, self-employed)",2,2,A few times,9.683333333,17.8,0.544007491,24,24,165,6,45,0,20,14,Human,1,14,0,1,D<H<AI,2,22,-6,0,4,4,0,1,1,0.6,0.3,0,1,0,0
166,3,2r3idpfm,2.32,1,0,1,1,1,2,1,1,1,0.8,I read the instructions,38,Male,Bachelor,"Working (part-time, full-time, self-employed)",2,2,A few times,9.683333333,17.8,0.544007491,24,24,166,6,46,0,10,6,Human,1,6,0,0,H<D=AI,6,11,-4,0,0,4,0,0,0,0.4,0.4,0,1,0,0
167,3,2r3idpfm,2.32,1,0,1,1,1,2,1,1,1,0.8,I read the instructions,38,Male,Bachelor,"Working (part-time, full-time, self-employed)",2,2,A few times,9.683333333,17.8,0.544007491,24,24,167,6,47,0,6,12,Human,1,12,1,1,AI<D<H,3,7,6,0,2,2,0,1,1,0.6,1,0,1,0,0
168,3,2r3idpfm,2.32,1,0,1,1,1,2,1,1,1,0.8,I read the instructions,38,Male,Bachelor,"Working (part-time, full-time, self-employed)",2,2,A few times,9.683333333,17.8,0.544007491,24,24,168,6,48,0,12,4,AI,0,12,0,1,H<D<AI,8,1,-8,1,2,2,0,1,0,0.8,0.666666667,0,1,0,0
169,4,5ni2ycku,0.94,0,0,0,-1,0,0,0,0,0,0,I read the instructions,38,Female,Bachelor,"Working (part-time, full-time, self-employed)",4,4,Not at all,2.3,9.35,0.245989305,24,24,169,0,a,1,11,17,Human,1,17,1,1,D<AI<H,1,10,6,0,1,7,0,0,0,0.6,0.545454545,0,0,0,0
170,4,5ni2ycku,0.94,0,0,0,-1,0,0,0,0,0,0,I read the instructions,38,Female,Bachelor,"Working (part-time, full-time, self-employed)",4,4,Not at all,2.3,9.35,0.245989305,24,24,170,0,b,1,15,12,AI,0,15,0,0,D<H<AI,2,7,-3,1,2,5,0,0,1,0.3,0.2,0,0,0,0
171,4,5ni2ycku,0.94,0,0,0,-1,0,0,0,0,0,0,I read the instructions,38,Female,Bachelor,"Working (part-time, full-time, self-employed)",4,4,Not at all,2.3,9.35,0.245989305,24,24,171,0,c,1,9,11,Human,1,11,1,0,AI<D<H,3,12,2,1,1,1,1,0,0,0.2,0.222222222,0,0,0,0
172,4,5ni2ycku,0.94,0,0,0,-1,0,0,0,0,0,0,I read the instructions,38,Female,Bachelor,"Working (part-time, full-time, self-employed)",4,4,Not at all,2.3,9.35,0.245989305,24,24,172,0,d,1,17,11,AI,0,17,0,1,D<H<AI,2,15,-6,0,1,7,0,0,1,0.6,0.352941176,0,0,0,0
173,4,5ni2ycku,0.94,0,0,0,-1,0,0,0,0,0,0,I read the instructions,38,Female,Bachelor,"Working (part-time, full-time, self-employed)",4,4,Not at all,2.3,9.35,0.245989305,24,24,173,0,e,1,10,13,Human,1,13,1,0,D=AI<H,4,7,3,0,0,3,0,0,0,0.3,0.3,0,0,0,0
174,4,5ni2ycku,0.94,0,0,0,-1,0,0,0,0,0,0,I read the instructions,38,Female,Bachelor,"Working (part-time, full-time, self-employed)",4,4,Not at all,2.3,9.35,0.245989305,24,24,174,0,f,1,17,10,AI,0,17,0,1,D=H<AI,5,11,-7,1,0,7,0,0,1,0.7,0.411764706,0,0,0,0
175,4,5ni2ycku,0.94,0,0,0,-1,0,0,0,0,0,0,I read the instructions,38,Female,Bachelor,"Working (part-time, full-time, self-employed)",4,4,Not at all,2.3,9.35,0.245989305,24,24,175,0,g,1,12,18,Human,1,18,1,1,D<AI<H,1,16,6,1,2,8,0,0,0,0.6,0.5,0,0,0,0
176,4,5ni2ycku,0.94,0,0,0,-1,0,0,0,0,0,0,I read the instructions,38,Female,Bachelor,"Working (part-time, full-time, self-employed)",4,4,Not at all,2.3,9.35,0.245989305,24,24,176,0,h,1,10,9,AI,0,10,0,0,H<D=AI,6,15,-1,0,0,0,0,1,0,0.1,0.1,0,0,0,0
177,4,5ni2ycku,0.94,0,0,0,-1,0,0,0,0,0,0,I read the instructions,38,Female,Bachelor,"Working (part-time, full-time, self-employed)",4,4,Not at all,2.3,9.35,0.245989305,24,24,177,1,1,0,8,4,AI,0,8,0,0,H<AI<D,7,5,-4,1,2,2,0,1,0,0.4,0.5,1,0,1,1
178,4,5ni2ycku,0.94,0,0,0,-1,0,0,0,0,0,0,I read the instructions,38,Female,Bachelor,"Working (part-time, full-time, self-employed)",4,4,Not at all,2.3,9.35,0.245989305,24,24,178,1,2,0,15,9,AI,0,15,0,1,H<D<AI,8,11,-6,1,1,5,0,0,1,0.6,0.4,1,0,0,1
179,4,5ni2ycku,0.94,0,0,0,-1,0,0,0,0,0,0,I read the instructions,38,Female,Bachelor,"Working (part-time, full-time, self-employed)",4,4,Not at all,2.3,9.35,0.245989305,24,24,179,1,3,0,7,10,Human,1,10,1,0,AI<D=H,9,8,3,0,0,0,0,1,1,0.3,0.428571429,1,0,0,0
180,4,5ni2ycku,0.94,0,0,0,-1,0,0,0,0,0,0,I read the instructions,38,Female,Bachelor,"Working (part-time, full-time, self-employed)",4,4,Not at all,2.3,9.35,0.245989305,24,24,180,1,4,0,14,24,Human,1,24,1,1,D<AI<H,1,15,10,0,4,14,0,0,0,1,0.714285714,1,0,0,0
181,4,5ni2ycku,0.94,0,0,0,-1,0,0,0,0,0,0,I read the instructions,38,Female,Bachelor,"Working (part-time, full-time, self-employed)",4,4,Not at all,2.3,9.35,0.245989305,24,24,181,1,5,0,7,4,AI,0,7,0,0,H<AI<D,7,6,-3,0,3,3,0,1,0,0.3,0.428571429,1,0,0,0
182,4,5ni2ycku,0.94,0,0,0,-1,0,0,0,0,0,0,I read the instructions,38,Female,Bachelor,"Working (part-time, full-time, self-employed)",4,4,Not at all,2.3,9.35,0.245989305,24,24,182,1,6,0,13,19,Human,1,19,1,1,D<AI<H,1,5,6,0,3,9,0,0,0,0.6,0.461538462,1,0,0,0
183,4,5ni2ycku,0.94,0,0,0,-1,0,0,0,0,0,0,I read the instructions,38,Female,Bachelor,"Working (part-time, full-time, self-employed)",4,4,Not at all,2.3,9.35,0.245989305,24,24,183,1,7,0,6,14,Human,1,14,1,1,AI<D<H,3,17,8,1,4,4,1,0,0,0.8,1.333333333,1,0,0,0
184,4,5ni2ycku,0.94,0,0,0,-1,0,0,0,0,0,0,I read the instructions,38,Female,Bachelor,"Working (part-time, full-time, self-employed)",4,4,Not at all,2.3,9.35,0.245989305,24,24,184,1,8,0,26,17,AI,0,26,0,1,D<H<AI,2,10,-9,1,7,16,0,0,1,0.9,0.346153846,1,0,0,0
185,4,5ni2ycku,0.94,0,0,0,-1,0,0,0,0,0,0,I read the instructions,38,Female,Bachelor,"Working (part-time, full-time, self-employed)",4,4,Not at all,2.3,9.35,0.245989305,24,24,185,2,9,0,12,8,AI,0,12,0,0,H<D<AI,8,17,-4,0,2,2,1,0,0,0.4,0.333333333,0,0,1,1
186,4,5ni2ycku,0.94,0,0,0,-1,0,0,0,0,0,0,I read the instructions,38,Female,Bachelor,"Working (part-time, full-time, self-employed)",4,4,Not at all,2.3,9.35,0.245989305,24,24,186,2,10,0,18,26,Human,1,26,1,1,D<AI<H,1,10,8,0,8,16,0,0,0,0.8,0.444444444,0,0,0,1
187,4,5ni2ycku,0.94,0,0,0,-1,0,0,0,0,0,0,I read the instructions,38,Female,Bachelor,"Working (part-time, full-time, self-employed)",4,4,Not at all,2.3,9.35,0.245989305,24,24,187,2,11,0,17,14,AI,0,17,0,0,D<H<AI,2,10,-3,1,4,7,0,0,1,0.3,0.176470588,0,0,0,0
188,4,5ni2ycku,0.94,0,0,0,-1,0,0,0,0,0,0,I read the instructions,38,Female,Bachelor,"Working (part-time, full-time, self-employed)",4,4,Not at all,2.3,9.35,0.245989305,24,24,188,2,12,0,10,8,AI,0,10,0,0,H<D=AI,6,4,-2,1,0,0,0,1,0,0.2,0.2,0,0,0,0
189,4,5ni2ycku,0.94,0,0,0,-1,0,0,0,0,0,0,I read the instructions,38,Female,Bachelor,"Working (part-time, full-time, self-employed)",4,4,Not at all,2.3,9.35,0.245989305,24,24,189,2,13,0,14,17,Human,1,17,1,0,D<AI<H,1,10,3,0,4,7,0,0,0,0.3,0.214285714,0,0,0,0
190,4,5ni2ycku,0.94,0,0,0,-1,0,0,0,0,0,0,I read the instructions,38,Female,Bachelor,"Working (part-time, full-time, self-employed)",4,4,Not at all,2.3,9.35,0.245989305,24,24,190,2,14,0,9,16,Human,1,16,1,1,AI<D<H,3,6,7,0,1,6,0,0,0,0.7,0.777777778,0,0,0,0
191,4,5ni2ycku,0.94,0,0,0,-1,0,0,0,0,0,0,I read the instructions,38,Female,Bachelor,"Working (part-time, full-time, self-employed)",4,4,Not at all,2.3,9.35,0.245989305,24,24,191,2,15,0,14,11,AI,0,14,0,0,D<H<AI,2,13,-3,0,1,4,0,0,1,0.3,0.214285714,0,0,0,0
192,4,5ni2ycku,0.94,0,0,0,-1,0,0,0,0,0,0,I read the instructions,38,Female,Bachelor,"Working (part-time, full-time, self-employed)",4,4,Not at all,2.3,9.35,0.245989305,24,24,192,2,16,0,4,7,Human,1,7,1,0,AI<H<D,10,6,3,1,3,3,0,1,1,0.3,0.75,0,0,0,0
193,4,5ni2ycku,0.94,0,0,0,-1,0,0,0,0,0,0,I read the instructions,38,Female,Bachelor,"Working (part-time, full-time, self-employed)",4,4,Not at all,2.3,9.35,0.245989305,24,24,193,3,17,0,13,4,AI,0,13,0,1,H<D<AI,8,7,-9,1,3,3,0,1,0,0.9,0.692307692,0,0,1,1
194,4,5ni2ycku,0.94,0,0,0,-1,0,0,0,0,0,0,I read the instructions,38,Female,Bachelor,"Working (part-time, full-time, self-employed)",4,4,Not at all,2.3,9.35,0.245989305,24,24,194,3,18,0,5,9,Human,1,9,1,0,AI<H<D,10,6,4,0,1,1,0,1,1,0.4,0.8,0,0,0,1
195,4,5ni2ycku,0.94,0,0,0,-1,0,0,0,0,0,0,I read the instructions,38,Female,Bachelor,"Working (part-time, full-time, self-employed)",4,4,Not at all,2.3,9.35,0.245989305,24,24,195,3,19,0,8,12,Human,1,12,1,0,AI<D<H,3,5,4,0,2,2,1,0,0,0.4,0.5,0,0,0,0
196,4,5ni2ycku,0.94,0,0,0,-1,0,0,0,0,0,0,I read the instructions,38,Female,Bachelor,"Working (part-time, full-time, self-employed)",4,4,Not at all,2.3,9.35,0.245989305,24,24,196,3,20,0,14,7,AI,0,14,0,1,H<D<AI,8,9,-7,1,3,4,0,0,1,0.7,0.5,0,0,0,0
197,4,5ni2ycku,0.94,0,0,0,-1,0,0,0,0,0,0,I read the instructions,38,Female,Bachelor,"Working (part-time, full-time, self-employed)",4,4,Not at all,2.3,9.35,0.245989305,24,24,197,3,21,0,12,21,Human,1,21,1,1,D<AI<H,1,10,9,0,2,11,0,0,0,0.9,0.75,0,0,0,0
198,4,5ni2ycku,0.94,0,0,0,-1,0,0,0,0,0,0,I read the instructions,38,Female,Bachelor,"Working (part-time, full-time, self-employed)",4,4,Not at all,2.3,9.35,0.245989305,24,24,198,3,22,0,11,8,AI,0,11,0,0,H<D<AI,8,12,-3,0,1,1,0,1,0,0.3,0.272727273,0,0,0,0
199,4,5ni2ycku,0.94,0,0,0,-1,0,0,0,0,0,0,I read the instructions,38,Female,Bachelor,"Working (part-time, full-time, self-employed)",4,4,Not at all,2.3,9.35,0.245989305,24,24,199,3,23,0,24,17,AI,0,24,0,1,D<H<AI,2,14,-7,1,7,14,0,0,1,0.7,0.291666667,0,0,0,0
200,4,5ni2ycku,0.94,0,0,0,-1,0,0,0,0,0,0,I read the instructions,38,Female,Bachelor,"Working (part-time, full-time, self-employed)",4,4,Not at all,2.3,9.35,0.245989305,24,24,200,3,24,0,16,3,AI,0,16,0,1,H<D<AI,8,5,-13,1,6,6,0,1,0,1.3,0.8125,0,0,0,0
201,4,5ni2ycku,0.94,0,0,0,-1,0,0,0,0,0,0,I read the instructions,38,Female,Bachelor,"Working (part-time, full-time, self-employed)",4,4,Not at all,2.3,9.35,0.245989305,24,24,201,4,25,0,10,14,AI,0,10,1,0,D=AI<H,4,13,4,1,0,0,0,1,0,0.4,0.4,0,0,1,1
202,4,5ni2ycku,0.94,0,0,0,-1,0,0,0,0,0,0,I read the instructions,38,Female,Bachelor,"Working (part-time, full-time, self-employed)",4,4,Not at all,2.3,9.35,0.245989305,24,24,202,4,26,0,10,3,Human,1,3,0,1,H<D=AI,6,9,-7,0,0,7,0,0,0,0.7,0.7,0,0,0,1
203,4,5ni2ycku,0.94,0,0,0,-1,0,0,0,0,0,0,I read the instructions,38,Female,Bachelor,"Working (part-time, full-time, self-employed)",4,4,Not at all,2.3,9.35,0.245989305,24,24,203,4,27,0,1,9,AI,0,1,1,1,AI<H<D,10,10,8,1,1,9,0,0,1,0.8,8,0,0,0,0
204,4,5ni2ycku,0.94,0,0,0,-1,0,0,0,0,0,0,I read the instructions,38,Female,Bachelor,"Working (part-time, full-time, self-employed)",4,4,Not at all,2.3,9.35,0.245989305,24,24,204,4,28,0,14,13,Human,1,13,0,0,D<H<AI,2,20,-1,0,3,3,0,1,1,0.1,0.071428571,0,0,0,0
205,4,5ni2ycku,0.94,0,0,0,-1,0,0,0,0,0,0,I read the instructions,38,Female,Bachelor,"Working (part-time, full-time, self-employed)",4,4,Not at all,2.3,9.35,0.245989305,24,24,205,4,29,0,12,9,Human,1,9,0,0,H<D<AI,8,10,-3,1,1,1,0,1,1,0.3,0.25,0,0,0,0
206,4,5ni2ycku,0.94,0,0,0,-1,0,0,0,0,0,0,I read the instructions,38,Female,Bachelor,"Working (part-time, full-time, self-employed)",4,4,Not at all,2.3,9.35,0.245989305,24,24,206,4,30,0,14,16,AI,0,14,1,0,D<AI<H,1,10,2,0,4,4,0,1,0,0.2,0.142857143,0,0,0,0
207,4,5ni2ycku,0.94,0,0,0,-1,0,0,0,0,0,0,I read the instructions,38,Female,Bachelor,"Working (part-time, full-time, self-employed)",4,4,Not at all,2.3,9.35,0.245989305,24,24,207,4,31,0,6,7,AI,0,6,1,0,AI<H<D,10,18,1,1,3,4,0,0,1,0.1,0.166666667,0,0,0,0
208,4,5ni2ycku,0.94,0,0,0,-1,0,0,0,0,0,0,I read the instructions,38,Female,Bachelor,"Working (part-time, full-time, self-employed)",4,4,Not at all,2.3,9.35,0.245989305,24,24,208,4,32,0,26,20,Human,1,20,0,1,D<H<AI,2,10,-6,1,10,10,0,1,1,0.6,0.230769231,0,0,0,0
209,4,5ni2ycku,0.94,0,0,0,-1,0,0,0,0,0,0,I read the instructions,38,Female,Bachelor,"Working (part-time, full-time, self-employed)",4,4,Not at all,2.3,9.35,0.245989305,24,24,209,5,33,0,10,12,AI,0,10,1,0,D=AI<H,4,19,2,1,0,0,0,1,0,0.2,0.2,0,0,1,1
210,4,5ni2ycku,0.94,0,0,0,-1,0,0,0,0,0,0,I read the instructions,38,Female,Bachelor,"Working (part-time, full-time, self-employed)",4,4,Not at all,2.3,9.35,0.245989305,24,24,210,5,34,0,17,15,Human,1,15,0,0,D<H<AI,2,19,-2,0,5,5,0,1,1,0.2,0.117647059,0,0,0,1
211,4,5ni2ycku,0.94,0,0,0,-1,0,0,0,0,0,0,I read the instructions,38,Female,Bachelor,"Working (part-time, full-time, self-employed)",4,4,Not at all,2.3,9.35,0.245989305,24,24,211,5,35,0,6,2,AI,0,6,0,0,H<AI<D,7,10,-4,0,4,4,0,1,0,0.4,0.666666667,0,0,0,0
212,4,5ni2ycku,0.94,0,0,0,-1,0,0,0,0,0,0,I read the instructions,38,Female,Bachelor,"Working (part-time, full-time, self-employed)",4,4,Not at all,2.3,9.35,0.245989305,24,24,212,5,36,0,8,15,Human,1,15,1,1,AI<D<H,3,7,7,0,2,5,0,0,0,0.7,0.875,0,0,0,0
213,4,5ni2ycku,0.94,0,0,0,-1,0,0,0,0,0,0,I read the instructions,38,Female,Bachelor,"Working (part-time, full-time, self-employed)",4,4,Not at all,2.3,9.35,0.245989305,24,24,213,5,37,0,12,23,Human,1,23,1,1,D<AI<H,1,13,11,0,2,13,0,0,0,1.1,0.916666667,0,0,0,0
214,4,5ni2ycku,0.94,0,0,0,-1,0,0,0,0,0,0,I read the instructions,38,Female,Bachelor,"Working (part-time, full-time, self-employed)",4,4,Not at all,2.3,9.35,0.245989305,24,24,214,5,38,0,19,11,AI,0,19,0,1,D<H<AI,2,9,-8,1,1,9,0,0,1,0.8,0.421052632,0,0,0,0
215,4,5ni2ycku,0.94,0,0,0,-1,0,0,0,0,0,0,I read the instructions,38,Female,Bachelor,"Working (part-time, full-time, self-employed)",4,4,Not at all,2.3,9.35,0.245989305,24,24,215,5,39,0,8,11,Human,1,11,1,0,AI<D<H,3,7,3,0,1,1,0,1,1,0.3,0.375,0,0,0,0
216,4,5ni2ycku,0.94,0,0,0,-1,0,0,0,0,0,0,I read the instructions,38,Female,Bachelor,"Working (part-time, full-time, self-employed)",4,4,Not at all,2.3,9.35,0.245989305,24,24,216,5,40,0,13,24,Human,1,24,1,1,D<AI<H,1,20,11,1,3,14,0,0,0,1.1,0.846153846,0,0,0,0
217,4,5ni2ycku,0.94,0,0,0,-1,0,0,0,0,0,0,I read the instructions,38,Female,Bachelor,"Working (part-time, full-time, self-employed)",4,4,Not at all,2.3,9.35,0.245989305,24,24,217,6,41,0,17,9,AI,0,17,0,1,H<D<AI,8,10,-8,1,1,7,0,0,1,0.8,0.470588235,0,1,1,1
218,4,5ni2ycku,0.94,0,0,0,-1,0,0,0,0,0,0,I read the instructions,38,Female,Bachelor,"Working (part-time, full-time, self-employed)",4,4,Not at all,2.3,9.35,0.245989305,24,24,218,6,42,0,9,12,Human,1,12,1,0,AI<D<H,3,10,3,0,1,2,0,0,0,0.3,0.333333333,0,1,0,1
219,4,5ni2ycku,0.94,0,0,0,-1,0,0,0,0,0,0,I read the instructions,38,Female,Bachelor,"Working (part-time, full-time, self-employed)",4,4,Not at all,2.3,9.35,0.245989305,24,24,219,6,43,0,3,6,Human,1,6,1,0,AI<H<D,10,10,3,1,4,4,0,1,1,0.3,1,0,1,0,0
220,4,5ni2ycku,0.94,0,0,0,-1,0,0,0,0,0,0,I read the instructions,38,Female,Bachelor,"Working (part-time, full-time, self-employed)",4,4,Not at all,2.3,9.35,0.245989305,24,24,220,6,44,0,7,14,Human,1,14,1,1,AI<D<H,3,10,7,0,3,4,0,0,0,0.7,1,0,1,0,0
221,4,5ni2ycku,0.94,0,0,0,-1,0,0,0,0,0,0,I read the instructions,38,Female,Bachelor,"Working (part-time, full-time, self-employed)",4,4,Not at all,2.3,9.35,0.245989305,24,24,221,6,45,0,20,14,AI,0,20,0,1,D<H<AI,2,22,-6,0,4,10,0,0,1,0.6,0.3,0,1,0,0
222,4,5ni2ycku,0.94,0,0,0,-1,0,0,0,0,0,0,I read the instructions,38,Female,Bachelor,"Working (part-time, full-time, self-employed)",4,4,Not at all,2.3,9.35,0.245989305,24,24,222,6,46,0,10,6,AI,0,10,0,0,H<D=AI,6,11,-4,0,0,0,0,1,0,0.4,0.4,0,1,0,0
223,4,5ni2ycku,0.94,0,0,0,-1,0,0,0,0,0,0,I read the instructions,38,Female,Bachelor,"Working (part-time, full-time, self-employed)",4,4,Not at all,2.3,9.35,0.245989305,24,24,223,6,47,0,6,12,Human,1,12,1,1,AI<D<H,3,7,6,0,2,2,0,1,1,0.6,1,0,1,0,0
224,4,5ni2ycku,0.94,0,0,0,-1,0,0,0,0,0,0,I read the instructions,38,Female,Bachelor,"Working (part-time, full-time, self-employed)",4,4,Not at all,2.3,9.35,0.245989305,24,24,224,6,48,0,12,4,AI,0,12,0,1,H<D<AI,8,1,-8,1,2,2,0,1,0,0.8,0.666666667,0,1,0,0
225,5,6d3m4uew,2.94,-1,1,1,1,1,1,2,0,1,1,I read the instructions,41,Female,High school,Other,4,4,Not at all,7.633333333,14.91666667,0.511731844,20,28,225,0,a,1,11,17,AI,0,11,1,1,D<AI<H,1,10,6,0,1,1,0,1,0,0.6,0.545454545,0,0,0,0
226,5,6d3m4uew,2.94,-1,1,1,1,1,1,2,0,1,1,I read the instructions,41,Female,High school,Other,4,4,Not at all,7.633333333,14.91666667,0.511731844,20,28,226,0,b,1,15,12,Human,1,12,0,0,D<H<AI,2,7,-3,1,2,2,0,1,1,0.3,0.2,0,0,0,0
227,5,6d3m4uew,2.94,-1,1,1,1,1,1,2,0,1,1,I read the instructions,41,Female,High school,Other,4,4,Not at all,7.633333333,14.91666667,0.511731844,20,28,227,0,c,1,9,11,Human,1,11,1,0,AI<D<H,3,12,2,1,1,1,1,0,0,0.2,0.222222222,0,0,0,0
228,5,6d3m4uew,2.94,-1,1,1,1,1,1,2,0,1,1,I read the instructions,41,Female,High school,Other,4,4,Not at all,7.633333333,14.91666667,0.511731844,20,28,228,0,d,1,17,11,Human,1,11,0,1,D<H<AI,2,15,-6,0,1,1,0,1,1,0.6,0.352941176,0,0,0,0
229,5,6d3m4uew,2.94,-1,1,1,1,1,1,2,0,1,1,I read the instructions,41,Female,High school,Other,4,4,Not at all,7.633333333,14.91666667,0.511731844,20,28,229,0,e,1,10,13,AI,0,10,1,0,D=AI<H,4,7,3,0,0,0,0,1,0,0.3,0.3,0,0,0,0
230,5,6d3m4uew,2.94,-1,1,1,1,1,1,2,0,1,1,I read the instructions,41,Female,High school,Other,4,4,Not at all,7.633333333,14.91666667,0.511731844,20,28,230,0,f,1,17,10,Human,1,10,0,1,D=H<AI,5,11,-7,1,0,0,0,1,1,0.7,0.411764706,0,0,0,0
231,5,6d3m4uew,2.94,-1,1,1,1,1,1,2,0,1,1,I read the instructions,41,Female,High school,Other,4,4,Not at all,7.633333333,14.91666667,0.511731844,20,28,231,0,g,1,12,18,AI,0,12,1,1,D<AI<H,1,16,6,1,2,2,0,1,0,0.6,0.5,0,0,0,0
232,5,6d3m4uew,2.94,-1,1,1,1,1,1,2,0,1,1,I read the instructions,41,Female,High school,Other,4,4,Not at all,7.633333333,14.91666667,0.511731844,20,28,232,0,h,1,10,9,AI,0,10,0,0,H<D=AI,6,15,-1,0,0,0,0,1,0,0.1,0.1,0,0,0,0
233,5,6d3m4uew,2.94,-1,1,1,1,1,1,2,0,1,1,I read the instructions,41,Female,High school,Other,4,4,Not at all,7.633333333,14.91666667,0.511731844,20,28,233,1,1,0,8,4,AI,0,8,0,0,H<AI<D,7,5,-4,1,2,2,0,1,0,0.4,0.5,1,0,1,1
234,5,6d3m4uew,2.94,-1,1,1,1,1,1,2,0,1,1,I read the instructions,41,Female,High school,Other,4,4,Not at all,7.633333333,14.91666667,0.511731844,20,28,234,1,2,0,15,9,AI,0,15,0,1,H<D<AI,8,11,-6,1,1,5,0,0,1,0.6,0.4,1,0,0,1
235,5,6d3m4uew,2.94,-1,1,1,1,1,1,2,0,1,1,I read the instructions,41,Female,High school,Other,4,4,Not at all,7.633333333,14.91666667,0.511731844,20,28,235,1,3,0,7,10,Human,1,10,1,0,AI<D=H,9,8,3,0,0,0,0,1,1,0.3,0.428571429,1,0,0,0
236,5,6d3m4uew,2.94,-1,1,1,1,1,1,2,0,1,1,I read the instructions,41,Female,High school,Other,4,4,Not at all,7.633333333,14.91666667,0.511731844,20,28,236,1,4,0,14,24,AI,0,14,1,1,D<AI<H,1,15,10,0,4,4,0,1,0,1,0.714285714,1,0,0,0
237,5,6d3m4uew,2.94,-1,1,1,1,1,1,2,0,1,1,I read the instructions,41,Female,High school,Other,4,4,Not at all,7.633333333,14.91666667,0.511731844,20,28,237,1,5,0,7,4,AI,0,7,0,0,H<AI<D,7,6,-3,0,3,3,0,1,0,0.3,0.428571429,1,0,0,0
238,5,6d3m4uew,2.94,-1,1,1,1,1,1,2,0,1,1,I read the instructions,41,Female,High school,Other,4,4,Not at all,7.633333333,14.91666667,0.511731844,20,28,238,1,6,0,13,19,AI,0,13,1,1,D<AI<H,1,5,6,0,3,3,0,1,0,0.6,0.461538462,1,0,0,0
239,5,6d3m4uew,2.94,-1,1,1,1,1,1,2,0,1,1,I read the instructions,41,Female,High school,Other,4,4,Not at all,7.633333333,14.91666667,0.511731844,20,28,239,1,7,0,6,14,Human,1,14,1,1,AI<D<H,3,17,8,1,4,4,1,0,0,0.8,1.333333333,1,0,0,0
240,5,6d3m4uew,2.94,-1,1,1,1,1,1,2,0,1,1,I read the instructions,41,Female,High school,Other,4,4,Not at all,7.633333333,14.91666667,0.511731844,20,28,240,1,8,0,26,17,Human,1,17,0,1,D<H<AI,2,10,-9,1,7,7,0,1,1,0.9,0.346153846,1,0,0,0
241,5,6d3m4uew,2.94,-1,1,1,1,1,1,2,0,1,1,I read the instructions,41,Female,High school,Other,4,4,Not at all,7.633333333,14.91666667,0.511731844,20,28,241,2,9,0,12,8,AI,0,12,0,0,H<D<AI,8,17,-4,0,2,2,1,0,0,0.4,0.333333333,0,0,1,1
242,5,6d3m4uew,2.94,-1,1,1,1,1,1,2,0,1,1,I read the instructions,41,Female,High school,Other,4,4,Not at all,7.633333333,14.91666667,0.511731844,20,28,242,2,10,0,18,26,AI,0,18,1,1,D<AI<H,1,10,8,0,8,8,0,1,0,0.8,0.444444444,0,0,0,1
243,5,6d3m4uew,2.94,-1,1,1,1,1,1,2,0,1,1,I read the instructions,41,Female,High school,Other,4,4,Not at all,7.633333333,14.91666667,0.511731844,20,28,243,2,11,0,17,14,Human,1,14,0,0,D<H<AI,2,10,-3,1,4,4,0,1,1,0.3,0.176470588,0,0,0,0
244,5,6d3m4uew,2.94,-1,1,1,1,1,1,2,0,1,1,I read the instructions,41,Female,High school,Other,4,4,Not at all,7.633333333,14.91666667,0.511731844,20,28,244,2,12,0,10,8,AI,0,10,0,0,H<D=AI,6,4,-2,1,0,0,0,1,0,0.2,0.2,0,0,0,0
245,5,6d3m4uew,2.94,-1,1,1,1,1,1,2,0,1,1,I read the instructions,41,Female,High school,Other,4,4,Not at all,7.633333333,14.91666667,0.511731844,20,28,245,2,13,0,14,17,AI,0,14,1,0,D<AI<H,1,10,3,0,4,4,0,1,0,0.3,0.214285714,0,0,0,0
246,5,6d3m4uew,2.94,-1,1,1,1,1,1,2,0,1,1,I read the instructions,41,Female,High school,Other,4,4,Not at all,7.633333333,14.91666667,0.511731844,20,28,246,2,14,0,9,16,Human,1,16,1,1,AI<D<H,3,6,7,0,1,6,0,0,0,0.7,0.777777778,0,0,0,0
247,5,6d3m4uew,2.94,-1,1,1,1,1,1,2,0,1,1,I read the instructions,41,Female,High school,Other,4,4,Not at all,7.633333333,14.91666667,0.511731844,20,28,247,2,15,0,14,11,Human,1,11,0,0,D<H<AI,2,13,-3,0,1,1,0,1,1,0.3,0.214285714,0,0,0,0
248,5,6d3m4uew,2.94,-1,1,1,1,1,1,2,0,1,1,I read the instructions,41,Female,High school,Other,4,4,Not at all,7.633333333,14.91666667,0.511731844,20,28,248,2,16,0,4,7,Human,1,7,1,0,AI<H<D,10,6,3,1,3,3,0,1,1,0.3,0.75,0,0,0,0
249,5,6d3m4uew,2.94,-1,1,1,1,1,1,2,0,1,1,I read the instructions,41,Female,High school,Other,4,4,Not at all,7.633333333,14.91666667,0.511731844,20,28,249,3,17,0,13,4,AI,0,13,0,1,H<D<AI,8,7,-9,1,3,3,0,1,0,0.9,0.692307692,0,0,1,1
250,5,6d3m4uew,2.94,-1,1,1,1,1,1,2,0,1,1,I read the instructions,41,Female,High school,Other,4,4,Not at all,7.633333333,14.91666667,0.511731844,20,28,250,3,18,0,5,9,Human,1,9,1,0,AI<H<D,10,6,4,0,1,1,0,1,1,0.4,0.8,0,0,0,1
251,5,6d3m4uew,2.94,-1,1,1,1,1,1,2,0,1,1,I read the instructions,41,Female,High school,Other,4,4,Not at all,7.633333333,14.91666667,0.511731844,20,28,251,3,19,0,8,12,Human,1,12,1,0,AI<D<H,3,5,4,0,2,2,1,0,0,0.4,0.5,0,0,0,0
252,5,6d3m4uew,2.94,-1,1,1,1,1,1,2,0,1,1,I read the instructions,41,Female,High school,Other,4,4,Not at all,7.633333333,14.91666667,0.511731844,20,28,252,3,20,0,14,7,AI,0,14,0,1,H<D<AI,8,9,-7,1,3,4,0,0,1,0.7,0.5,0,0,0,0
253,5,6d3m4uew,2.94,-1,1,1,1,1,1,2,0,1,1,I read the instructions,41,Female,High school,Other,4,4,Not at all,7.633333333,14.91666667,0.511731844,20,28,253,3,21,0,12,21,AI,0,12,1,1,D<AI<H,1,10,9,0,2,2,0,1,0,0.9,0.75,0,0,0,0
254,5,6d3m4uew,2.94,-1,1,1,1,1,1,2,0,1,1,I read the instructions,41,Female,High school,Other,4,4,Not at all,7.633333333,14.91666667,0.511731844,20,28,254,3,22,0,11,8,AI,0,11,0,0,H<D<AI,8,12,-3,0,1,1,0,1,0,0.3,0.272727273,0,0,0,0
255,5,6d3m4uew,2.94,-1,1,1,1,1,1,2,0,1,1,I read the instructions,41,Female,High school,Other,4,4,Not at all,7.633333333,14.91666667,0.511731844,20,28,255,3,23,0,24,17,Human,1,17,0,1,D<H<AI,2,14,-7,1,7,7,0,1,1,0.7,0.291666667,0,0,0,0
256,5,6d3m4uew,2.94,-1,1,1,1,1,1,2,0,1,1,I read the instructions,41,Female,High school,Other,4,4,Not at all,7.633333333,14.91666667,0.511731844,20,28,256,3,24,0,16,3,Human,1,3,0,1,H<D<AI,8,5,-13,1,6,7,0,0,0,1.3,0.8125,0,0,0,0
257,5,6d3m4uew,2.94,-1,1,1,1,1,1,2,0,1,1,I read the instructions,41,Female,High school,Other,4,4,Not at all,7.633333333,14.91666667,0.511731844,20,28,257,4,25,0,10,14,Human,1,14,1,0,D=AI<H,4,13,4,1,0,4,0,0,0,0.4,0.4,0,0,1,1
258,5,6d3m4uew,2.94,-1,1,1,1,1,1,2,0,1,1,I read the instructions,41,Female,High school,Other,4,4,Not at all,7.633333333,14.91666667,0.511731844,20,28,258,4,26,0,10,3,AI,0,10,0,1,H<D=AI,6,9,-7,0,0,0,0,1,0,0.7,0.7,0,0,0,1
259,5,6d3m4uew,2.94,-1,1,1,1,1,1,2,0,1,1,I read the instructions,41,Female,High school,Other,4,4,Not at all,7.633333333,14.91666667,0.511731844,20,28,259,4,27,0,1,9,Human,1,9,1,1,AI<H<D,10,10,8,1,1,1,0,1,1,0.8,8,0,0,0,0
260,5,6d3m4uew,2.94,-1,1,1,1,1,1,2,0,1,1,I read the instructions,41,Female,High school,Other,4,4,Not at all,7.633333333,14.91666667,0.511731844,20,28,260,4,28,0,14,13,Human,1,13,0,0,D<H<AI,2,20,-1,0,3,3,0,1,1,0.1,0.071428571,0,0,0,0
261,5,6d3m4uew,2.94,-1,1,1,1,1,1,2,0,1,1,I read the instructions,41,Female,High school,Other,4,4,Not at all,7.633333333,14.91666667,0.511731844,20,28,261,4,29,0,12,9,AI,0,12,0,0,H<D<AI,8,10,-3,1,1,2,0,0,1,0.3,0.25,0,0,0,0
262,5,6d3m4uew,2.94,-1,1,1,1,1,1,2,0,1,1,I read the instructions,41,Female,High school,Other,4,4,Not at all,7.633333333,14.91666667,0.511731844,20,28,262,4,30,0,14,16,AI,0,14,1,0,D<AI<H,1,10,2,0,4,4,0,1,0,0.2,0.142857143,0,0,0,0
263,5,6d3m4uew,2.94,-1,1,1,1,1,1,2,0,1,1,I read the instructions,41,Female,High school,Other,4,4,Not at all,7.633333333,14.91666667,0.511731844,20,28,263,4,31,0,6,7,Human,1,7,1,0,AI<H<D,10,18,1,1,3,3,0,1,1,0.1,0.166666667,0,0,0,0
264,5,6d3m4uew,2.94,-1,1,1,1,1,1,2,0,1,1,I read the instructions,41,Female,High school,Other,4,4,Not at all,7.633333333,14.91666667,0.511731844,20,28,264,4,32,0,26,20,Human,1,20,0,1,D<H<AI,2,10,-6,1,10,10,0,1,1,0.6,0.230769231,0,0,0,0
265,5,6d3m4uew,2.94,-1,1,1,1,1,1,2,0,1,1,I read the instructions,41,Female,High school,Other,4,4,Not at all,7.633333333,14.91666667,0.511731844,20,28,265,5,33,0,10,12,Human,1,12,1,0,D=AI<H,4,19,2,1,0,2,0,0,0,0.2,0.2,0,0,1,1
266,5,6d3m4uew,2.94,-1,1,1,1,1,1,2,0,1,1,I read the instructions,41,Female,High school,Other,4,4,Not at all,7.633333333,14.91666667,0.511731844,20,28,266,5,34,0,17,15,Human,1,15,0,0,D<H<AI,2,19,-2,0,5,5,0,1,1,0.2,0.117647059,0,0,0,1
267,5,6d3m4uew,2.94,-1,1,1,1,1,1,2,0,1,1,I read the instructions,41,Female,High school,Other,4,4,Not at all,7.633333333,14.91666667,0.511731844,20,28,267,5,35,0,6,2,AI,0,6,0,0,H<AI<D,7,10,-4,0,4,4,0,1,0,0.4,0.666666667,0,0,0,0
268,5,6d3m4uew,2.94,-1,1,1,1,1,1,2,0,1,1,I read the instructions,41,Female,High school,Other,4,4,Not at all,7.633333333,14.91666667,0.511731844,20,28,268,5,36,0,8,15,Human,1,15,1,1,AI<D<H,3,7,7,0,2,5,0,0,0,0.7,0.875,0,0,0,0
269,5,6d3m4uew,2.94,-1,1,1,1,1,1,2,0,1,1,I read the instructions,41,Female,High school,Other,4,4,Not at all,7.633333333,14.91666667,0.511731844,20,28,269,5,37,0,12,23,AI,0,12,1,1,D<AI<H,1,13,11,0,2,2,0,1,0,1.1,0.916666667,0,0,0,0
270,5,6d3m4uew,2.94,-1,1,1,1,1,1,2,0,1,1,I read the instructions,41,Female,High school,Other,4,4,Not at all,7.633333333,14.91666667,0.511731844,20,28,270,5,38,0,19,11,Human,1,11,0,1,D<H<AI,2,9,-8,1,1,1,0,1,1,0.8,0.421052632,0,0,0,0
271,5,6d3m4uew,2.94,-1,1,1,1,1,1,2,0,1,1,I read the instructions,41,Female,High school,Other,4,4,Not at all,7.633333333,14.91666667,0.511731844,20,28,271,5,39,0,8,11,Human,1,11,1,0,AI<D<H,3,7,3,0,1,1,0,1,1,0.3,0.375,0,0,0,0
272,5,6d3m4uew,2.94,-1,1,1,1,1,1,2,0,1,1,I read the instructions,41,Female,High school,Other,4,4,Not at all,7.633333333,14.91666667,0.511731844,20,28,272,5,40,0,13,24,AI,0,13,1,1,D<AI<H,1,20,11,1,3,3,0,1,0,1.1,0.846153846,0,0,0,0
273,5,6d3m4uew,2.94,-1,1,1,1,1,1,2,0,1,1,I read the instructions,41,Female,High school,Other,4,4,Not at all,7.633333333,14.91666667,0.511731844,20,28,273,6,41,0,17,9,Human,1,9,0,1,H<D<AI,8,10,-8,1,1,1,0,1,1,0.8,0.470588235,0,1,1,1
274,5,6d3m4uew,2.94,-1,1,1,1,1,1,2,0,1,1,I read the instructions,41,Female,High school,Other,4,4,Not at all,7.633333333,14.91666667,0.511731844,20,28,274,6,42,0,9,12,Human,1,12,1,0,AI<D<H,3,10,3,0,1,2,0,0,0,0.3,0.333333333,0,1,0,1
275,5,6d3m4uew,2.94,-1,1,1,1,1,1,2,0,1,1,I read the instructions,41,Female,High school,Other,4,4,Not at all,7.633333333,14.91666667,0.511731844,20,28,275,6,43,0,3,6,Human,1,6,1,0,AI<H<D,10,10,3,1,4,4,0,1,1,0.3,1,0,1,0,0
276,5,6d3m4uew,2.94,-1,1,1,1,1,1,2,0,1,1,I read the instructions,41,Female,High school,Other,4,4,Not at all,7.633333333,14.91666667,0.511731844,20,28,276,6,44,0,7,14,Human,1,14,1,1,AI<D<H,3,10,7,0,3,4,0,0,0,0.7,1,0,1,0,0
277,5,6d3m4uew,2.94,-1,1,1,1,1,1,2,0,1,1,I read the instructions,41,Female,High school,Other,4,4,Not at all,7.633333333,14.91666667,0.511731844,20,28,277,6,45,0,20,14,Human,1,14,0,1,D<H<AI,2,22,-6,0,4,4,0,1,1,0.6,0.3,0,1,0,0
278,5,6d3m4uew,2.94,-1,1,1,1,1,1,2,0,1,1,I read the instructions,41,Female,High school,Other,4,4,Not at all,7.633333333,14.91666667,0.511731844,20,28,278,6,46,0,10,6,AI,0,10,0,0,H<D=AI,6,11,-4,0,0,0,0,1,0,0.4,0.4,0,1,0,0
279,5,6d3m4uew,2.94,-1,1,1,1,1,1,2,0,1,1,I read the instructions,41,Female,High school,Other,4,4,Not at all,7.633333333,14.91666667,0.511731844,20,28,279,6,47,0,6,12,Human,1,12,1,1,AI<D<H,3,7,6,0,2,2,0,1,1,0.6,1,0,1,0,0
280,5,6d3m4uew,2.94,-1,1,1,1,1,1,2,0,1,1,I read the instructions,41,Female,High school,Other,4,4,Not at all,7.633333333,14.91666667,0.511731844,20,28,280,6,48,0,12,4,Human,1,4,0,1,H<D<AI,8,1,-8,1,2,6,0,0,0,0.8,0.666666667,0,1,0,0
281,6,8d62v201,2.82,0,0,0,1,2,1,1,-1,2,1.4,I read the instructions,31,Male,Bachelor,"Working (part-time, full-time, self-employed)",1,4,Not at all,3.516666667,9.166666667,0.383636364,28,20,281,0,a,1,11,17,AI,0,11,1,1,D<AI<H,1,10,6,0,1,1,0,1,0,0.6,0.545454545,0,0,0,0
282,6,8d62v201,2.82,0,0,0,1,2,1,1,-1,2,1.4,I read the instructions,31,Male,Bachelor,"Working (part-time, full-time, self-employed)",1,4,Not at all,3.516666667,9.166666667,0.383636364,28,20,282,0,b,1,15,12,Human,1,12,0,0,D<H<AI,2,7,-3,1,2,2,0,1,1,0.3,0.2,0,0,0,0
283,6,8d62v201,2.82,0,0,0,1,2,1,1,-1,2,1.4,I read the instructions,31,Male,Bachelor,"Working (part-time, full-time, self-employed)",1,4,Not at all,3.516666667,9.166666667,0.383636364,28,20,283,0,c,1,9,11,AI,0,9,1,0,AI<D<H,3,12,2,1,1,1,1,0,0,0.2,0.222222222,0,0,0,0
284,6,8d62v201,2.82,0,0,0,1,2,1,1,-1,2,1.4,I read the instructions,31,Male,Bachelor,"Working (part-time, full-time, self-employed)",1,4,Not at all,3.516666667,9.166666667,0.383636364,28,20,284,0,d,1,17,11,Human,1,11,0,1,D<H<AI,2,15,-6,0,1,1,0,1,1,0.6,0.352941176,0,0,0,0
285,6,8d62v201,2.82,0,0,0,1,2,1,1,-1,2,1.4,I read the instructions,31,Male,Bachelor,"Working (part-time, full-time, self-employed)",1,4,Not at all,3.516666667,9.166666667,0.383636364,28,20,285,0,e,1,10,13,Human,1,13,1,0,D=AI<H,4,7,3,0,0,3,0,0,0,0.3,0.3,0,0,0,0
286,6,8d62v201,2.82,0,0,0,1,2,1,1,-1,2,1.4,I read the instructions,31,Male,Bachelor,"Working (part-time, full-time, self-employed)",1,4,Not at all,3.516666667,9.166666667,0.383636364,28,20,286,0,f,1,17,10,Human,1,10,0,1,D=H<AI,5,11,-7,1,0,0,0,1,1,0.7,0.411764706,0,0,0,0
287,6,8d62v201,2.82,0,0,0,1,2,1,1,-1,2,1.4,I read the instructions,31,Male,Bachelor,"Working (part-time, full-time, self-employed)",1,4,Not at all,3.516666667,9.166666667,0.383636364,28,20,287,0,g,1,12,18,AI,0,12,1,1,D<AI<H,1,16,6,1,2,2,0,1,0,0.6,0.5,0,0,0,0
288,6,8d62v201,2.82,0,0,0,1,2,1,1,-1,2,1.4,I read the instructions,31,Male,Bachelor,"Working (part-time, full-time, self-employed)",1,4,Not at all,3.516666667,9.166666667,0.383636364,28,20,288,0,h,1,10,9,AI,0,10,0,0,H<D=AI,6,15,-1,0,0,0,0,1,0,0.1,0.1,0,0,0,0
289,6,8d62v201,2.82,0,0,0,1,2,1,1,-1,2,1.4,I read the instructions,31,Male,Bachelor,"Working (part-time, full-time, self-employed)",1,4,Not at all,3.516666667,9.166666667,0.383636364,28,20,289,1,1,0,8,4,AI,0,8,0,0,H<AI<D,7,5,-4,1,2,2,0,1,0,0.4,0.5,1,0,1,1
290,6,8d62v201,2.82,0,0,0,1,2,1,1,-1,2,1.4,I read the instructions,31,Male,Bachelor,"Working (part-time, full-time, self-employed)",1,4,Not at all,3.516666667,9.166666667,0.383636364,28,20,290,1,2,0,15,9,Human,1,9,0,1,H<D<AI,8,11,-6,1,1,1,0,1,1,0.6,0.4,1,0,0,1
291,6,8d62v201,2.82,0,0,0,1,2,1,1,-1,2,1.4,I read the instructions,31,Male,Bachelor,"Working (part-time, full-time, self-employed)",1,4,Not at all,3.516666667,9.166666667,0.383636364,28,20,291,1,3,0,7,10,AI,0,7,1,0,AI<D=H,9,8,3,0,0,3,0,0,1,0.3,0.428571429,1,0,0,0
292,6,8d62v201,2.82,0,0,0,1,2,1,1,-1,2,1.4,I read the instructions,31,Male,Bachelor,"Working (part-time, full-time, self-employed)",1,4,Not at all,3.516666667,9.166666667,0.383636364,28,20,292,1,4,0,14,24,AI,0,14,1,1,D<AI<H,1,15,10,0,4,4,0,1,0,1,0.714285714,1,0,0,0
293,6,8d62v201,2.82,0,0,0,1,2,1,1,-1,2,1.4,I read the instructions,31,Male,Bachelor,"Working (part-time, full-time, self-employed)",1,4,Not at all,3.516666667,9.166666667,0.383636364,28,20,293,1,5,0,7,4,Human,1,4,0,0,H<AI<D,7,6,-3,0,3,6,0,0,0,0.3,0.428571429,1,0,0,0
294,6,8d62v201,2.82,0,0,0,1,2,1,1,-1,2,1.4,I read the instructions,31,Male,Bachelor,"Working (part-time, full-time, self-employed)",1,4,Not at all,3.516666667,9.166666667,0.383636364,28,20,294,1,6,0,13,19,Human,1,19,1,1,D<AI<H,1,5,6,0,3,9,0,0,0,0.6,0.461538462,1,0,0,0
295,6,8d62v201,2.82,0,0,0,1,2,1,1,-1,2,1.4,I read the instructions,31,Male,Bachelor,"Working (part-time, full-time, self-employed)",1,4,Not at all,3.516666667,9.166666667,0.383636364,28,20,295,1,7,0,6,14,AI,0,6,1,1,AI<D<H,3,17,8,1,4,4,1,0,0,0.8,1.333333333,1,0,0,0
296,6,8d62v201,2.82,0,0,0,1,2,1,1,-1,2,1.4,I read the instructions,31,Male,Bachelor,"Working (part-time, full-time, self-employed)",1,4,Not at all,3.516666667,9.166666667,0.383636364,28,20,296,1,8,0,26,17,Human,1,17,0,1,D<H<AI,2,10,-9,1,7,7,0,1,1,0.9,0.346153846,1,0,0,0
297,6,8d62v201,2.82,0,0,0,1,2,1,1,-1,2,1.4,I read the instructions,31,Male,Bachelor,"Working (part-time, full-time, self-employed)",1,4,Not at all,3.516666667,9.166666667,0.383636364,28,20,297,2,9,0,12,8,AI,0,12,0,0,H<D<AI,8,17,-4,0,2,2,1,0,0,0.4,0.333333333,0,0,1,1
298,6,8d62v201,2.82,0,0,0,1,2,1,1,-1,2,1.4,I read the instructions,31,Male,Bachelor,"Working (part-time, full-time, self-employed)",1,4,Not at all,3.516666667,9.166666667,0.383636364,28,20,298,2,10,0,18,26,AI,0,18,1,1,D<AI<H,1,10,8,0,8,8,0,1,0,0.8,0.444444444,0,0,0,1
299,6,8d62v201,2.82,0,0,0,1,2,1,1,-1,2,1.4,I read the instructions,31,Male,Bachelor,"Working (part-time, full-time, self-employed)",1,4,Not at all,3.516666667,9.166666667,0.383636364,28,20,299,2,11,0,17,14,Human,1,14,0,0,D<H<AI,2,10,-3,1,4,4,0,1,1,0.3,0.176470588,0,0,0,0
300,6,8d62v201,2.82,0,0,0,1,2,1,1,-1,2,1.4,I read the instructions,31,Male,Bachelor,"Working (part-time, full-time, self-employed)",1,4,Not at all,3.516666667,9.166666667,0.383636364,28,20,300,2,12,0,10,8,AI,0,10,0,0,H<D=AI,6,4,-2,1,0,0,0,1,0,0.2,0.2,0,0,0,0
301,6,8d62v201,2.82,0,0,0,1,2,1,1,-1,2,1.4,I read the instructions,31,Male,Bachelor,"Working (part-time, full-time, self-employed)",1,4,Not at all,3.516666667,9.166666667,0.383636364,28,20,301,2,13,0,14,17,AI,0,14,1,0,D<AI<H,1,10,3,0,4,4,0,1,0,0.3,0.214285714,0,0,0,0
302,6,8d62v201,2.82,0,0,0,1,2,1,1,-1,2,1.4,I read the instructions,31,Male,Bachelor,"Working (part-time, full-time, self-employed)",1,4,Not at all,3.516666667,9.166666667,0.383636364,28,20,302,2,14,0,9,16,AI,0,9,1,1,AI<D<H,3,6,7,0,1,1,0,1,0,0.7,0.777777778,0,0,0,0
303,6,8d62v201,2.82,0,0,0,1,2,1,1,-1,2,1.4,I read the instructions,31,Male,Bachelor,"Working (part-time, full-time, self-employed)",1,4,Not at all,3.516666667,9.166666667,0.383636364,28,20,303,2,15,0,14,11,Human,1,11,0,0,D<H<AI,2,13,-3,0,1,1,0,1,1,0.3,0.214285714,0,0,0,0
304,6,8d62v201,2.82,0,0,0,1,2,1,1,-1,2,1.4,I read the instructions,31,Male,Bachelor,"Working (part-time, full-time, self-employed)",1,4,Not at all,3.516666667,9.166666667,0.383636364,28,20,304,2,16,0,4,7,Human,1,7,1,0,AI<H<D,10,6,3,1,3,3,0,1,1,0.3,0.75,0,0,0,0
305,6,8d62v201,2.82,0,0,0,1,2,1,1,-1,2,1.4,I read the instructions,31,Male,Bachelor,"Working (part-time, full-time, self-employed)",1,4,Not at all,3.516666667,9.166666667,0.383636364,28,20,305,3,17,0,13,4,AI,0,13,0,1,H<D<AI,8,7,-9,1,3,3,0,1,0,0.9,0.692307692,0,0,1,1
306,6,8d62v201,2.82,0,0,0,1,2,1,1,-1,2,1.4,I read the instructions,31,Male,Bachelor,"Working (part-time, full-time, self-employed)",1,4,Not at all,3.516666667,9.166666667,0.383636364,28,20,306,3,18,0,5,9,Human,1,9,1,0,AI<H<D,10,6,4,0,1,1,0,1,1,0.4,0.8,0,0,0,1
307,6,8d62v201,2.82,0,0,0,1,2,1,1,-1,2,1.4,I read the instructions,31,Male,Bachelor,"Working (part-time, full-time, self-employed)",1,4,Not at all,3.516666667,9.166666667,0.383636364,28,20,307,3,19,0,8,12,AI,0,8,1,0,AI<D<H,3,5,4,0,2,2,1,0,0,0.4,0.5,0,0,0,0
308,6,8d62v201,2.82,0,0,0,1,2,1,1,-1,2,1.4,I read the instructions,31,Male,Bachelor,"Working (part-time, full-time, self-employed)",1,4,Not at all,3.516666667,9.166666667,0.383636364,28,20,308,3,20,0,14,7,Human,1,7,0,1,H<D<AI,8,9,-7,1,3,3,0,1,1,0.7,0.5,0,0,0,0
309,6,8d62v201,2.82,0,0,0,1,2,1,1,-1,2,1.4,I read the instructions,31,Male,Bachelor,"Working (part-time, full-time, self-employed)",1,4,Not at all,3.516666667,9.166666667,0.383636364,28,20,309,3,21,0,12,21,AI,0,12,1,1,D<AI<H,1,10,9,0,2,2,0,1,0,0.9,0.75,0,0,0,0
310,6,8d62v201,2.82,0,0,0,1,2,1,1,-1,2,1.4,I read the instructions,31,Male,Bachelor,"Working (part-time, full-time, self-employed)",1,4,Not at all,3.516666667,9.166666667,0.383636364,28,20,310,3,22,0,11,8,AI,0,11,0,0,H<D<AI,8,12,-3,0,1,1,0,1,0,0.3,0.272727273,0,0,0,0
311,6,8d62v201,2.82,0,0,0,1,2,1,1,-1,2,1.4,I read the instructions,31,Male,Bachelor,"Working (part-time, full-time, self-employed)",1,4,Not at all,3.516666667,9.166666667,0.383636364,28,20,311,3,23,0,24,17,Human,1,17,0,1,D<H<AI,2,14,-7,1,7,7,0,1,1,0.7,0.291666667,0,0,0,0
312,6,8d62v201,2.82,0,0,0,1,2,1,1,-1,2,1.4,I read the instructions,31,Male,Bachelor,"Working (part-time, full-time, self-employed)",1,4,Not at all,3.516666667,9.166666667,0.383636364,28,20,312,3,24,0,16,3,AI,0,16,0,1,H<D<AI,8,5,-13,1,6,6,0,1,0,1.3,0.8125,0,0,0,0
313,6,8d62v201,2.82,0,0,0,1,2,1,1,-1,2,1.4,I read the instructions,31,Male,Bachelor,"Working (part-time, full-time, self-employed)",1,4,Not at all,3.516666667,9.166666667,0.383636364,28,20,313,4,25,0,10,14,AI,0,10,1,0,D=AI<H,4,13,4,1,0,0,0,1,0,0.4,0.4,0,0,1,1
314,6,8d62v201,2.82,0,0,0,1,2,1,1,-1,2,1.4,I read the instructions,31,Male,Bachelor,"Working (part-time, full-time, self-employed)",1,4,Not at all,3.516666667,9.166666667,0.383636364,28,20,314,4,26,0,10,3,AI,0,10,0,1,H<D=AI,6,9,-7,0,0,0,0,1,0,0.7,0.7,0,0,0,1
315,6,8d62v201,2.82,0,0,0,1,2,1,1,-1,2,1.4,I read the instructions,31,Male,Bachelor,"Working (part-time, full-time, self-employed)",1,4,Not at all,3.516666667,9.166666667,0.383636364,28,20,315,4,27,0,1,9,Human,1,9,1,1,AI<H<D,10,10,8,1,1,1,0,1,1,0.8,8,0,0,0,0
316,6,8d62v201,2.82,0,0,0,1,2,1,1,-1,2,1.4,I read the instructions,31,Male,Bachelor,"Working (part-time, full-time, self-employed)",1,4,Not at all,3.516666667,9.166666667,0.383636364,28,20,316,4,28,0,14,13,AI,0,14,0,0,D<H<AI,2,20,-1,0,3,4,0,0,1,0.1,0.071428571,0,0,0,0
317,6,8d62v201,2.82,0,0,0,1,2,1,1,-1,2,1.4,I read the instructions,31,Male,Bachelor,"Working (part-time, full-time, self-employed)",1,4,Not at all,3.516666667,9.166666667,0.383636364,28,20,317,4,29,0,12,9,AI,0,12,0,0,H<D<AI,8,10,-3,1,1,2,0,0,1,0.3,0.25,0,0,0,0
318,6,8d62v201,2.82,0,0,0,1,2,1,1,-1,2,1.4,I read the instructions,31,Male,Bachelor,"Working (part-time, full-time, self-employed)",1,4,Not at all,3.516666667,9.166666667,0.383636364,28,20,318,4,30,0,14,16,AI,0,14,1,0,D<AI<H,1,10,2,0,4,4,0,1,0,0.2,0.142857143,0,0,0,0
319,6,8d62v201,2.82,0,0,0,1,2,1,1,-1,2,1.4,I read the instructions,31,Male,Bachelor,"Working (part-time, full-time, self-employed)",1,4,Not at all,3.516666667,9.166666667,0.383636364,28,20,319,4,31,0,6,7,Human,1,7,1,0,AI<H<D,10,18,1,1,3,3,0,1,1,0.1,0.166666667,0,0,0,0
320,6,8d62v201,2.82,0,0,0,1,2,1,1,-1,2,1.4,I read the instructions,31,Male,Bachelor,"Working (part-time, full-time, self-employed)",1,4,Not at all,3.516666667,9.166666667,0.383636364,28,20,320,4,32,0,26,20,Human,1,20,0,1,D<H<AI,2,10,-6,1,10,10,0,1,1,0.6,0.230769231,0,0,0,0
321,6,8d62v201,2.82,0,0,0,1,2,1,1,-1,2,1.4,I read the instructions,31,Male,Bachelor,"Working (part-time, full-time, self-employed)",1,4,Not at all,3.516666667,9.166666667,0.383636364,28,20,321,5,33,0,10,12,AI,0,10,1,0,D=AI<H,4,19,2,1,0,0,0,1,0,0.2,0.2,0,0,1,1
322,6,8d62v201,2.82,0,0,0,1,2,1,1,-1,2,1.4,I read the instructions,31,Male,Bachelor,"Working (part-time, full-time, self-employed)",1,4,Not at all,3.516666667,9.166666667,0.383636364,28,20,322,5,34,0,17,15,Human,1,15,0,0,D<H<AI,2,19,-2,0,5,5,0,1,1,0.2,0.117647059,0,0,0,1
323,6,8d62v201,2.82,0,0,0,1,2,1,1,-1,2,1.4,I read the instructions,31,Male,Bachelor,"Working (part-time, full-time, self-employed)",1,4,Not at all,3.516666667,9.166666667,0.383636364,28,20,323,5,35,0,6,2,AI,0,6,0,0,H<AI<D,7,10,-4,0,4,4,0,1,0,0.4,0.666666667,0,0,0,0
324,6,8d62v201,2.82,0,0,0,1,2,1,1,-1,2,1.4,I read the instructions,31,Male,Bachelor,"Working (part-time, full-time, self-employed)",1,4,Not at all,3.516666667,9.166666667,0.383636364,28,20,324,5,36,0,8,15,AI,0,8,1,1,AI<D<H,3,7,7,0,2,2,0,1,0,0.7,0.875,0,0,0,0
325,6,8d62v201,2.82,0,0,0,1,2,1,1,-1,2,1.4,I read the instructions,31,Male,Bachelor,"Working (part-time, full-time, self-employed)",1,4,Not at all,3.516666667,9.166666667,0.383636364,28,20,325,5,37,0,12,23,AI,0,12,1,1,D<AI<H,1,13,11,0,2,2,0,1,0,1.1,0.916666667,0,0,0,0
326,6,8d62v201,2.82,0,0,0,1,2,1,1,-1,2,1.4,I read the instructions,31,Male,Bachelor,"Working (part-time, full-time, self-employed)",1,4,Not at all,3.516666667,9.166666667,0.383636364,28,20,326,5,38,0,19,11,Human,1,11,0,1,D<H<AI,2,9,-8,1,1,1,0,1,1,0.8,0.421052632,0,0,0,0
327,6,8d62v201,2.82,0,0,0,1,2,1,1,-1,2,1.4,I read the instructions,31,Male,Bachelor,"Working (part-time, full-time, self-employed)",1,4,Not at all,3.516666667,9.166666667,0.383636364,28,20,327,5,39,0,8,11,Human,1,11,1,0,AI<D<H,3,7,3,0,1,1,0,1,1,0.3,0.375,0,0,0,0
328,6,8d62v201,2.82,0,0,0,1,2,1,1,-1,2,1.4,I read the instructions,31,Male,Bachelor,"Working (part-time, full-time, self-employed)",1,4,Not at all,3.516666667,9.166666667,0.383636364,28,20,328,5,40,0,13,24,AI,0,13,1,1,D<AI<H,1,20,11,1,3,3,0,1,0,1.1,0.846153846,0,0,0,0
329,6,8d62v201,2.82,0,0,0,1,2,1,1,-1,2,1.4,I read the instructions,31,Male,Bachelor,"Working (part-time, full-time, self-employed)",1,4,Not at all,3.516666667,9.166666667,0.383636364,28,20,329,6,41,0,17,9,Human,1,9,0,1,H<D<AI,8,10,-8,1,1,1,0,1,1,0.8,0.470588235,0,1,1,1
330,6,8d62v201,2.82,0,0,0,1,2,1,1,-1,2,1.4,I read the instructions,31,Male,Bachelor,"Working (part-time, full-time, self-employed)",1,4,Not at all,3.516666667,9.166666667,0.383636364,28,20,330,6,42,0,9,12,Human,1,12,1,0,AI<D<H,3,10,3,0,1,2,0,0,0,0.3,0.333333333,0,1,0,1
331,6,8d62v201,2.82,0,0,0,1,2,1,1,-1,2,1.4,I read the instructions,31,Male,Bachelor,"Working (part-time, full-time, self-employed)",1,4,Not at all,3.516666667,9.166666667,0.383636364,28,20,331,6,43,0,3,6,Human,1,6,1,0,AI<H<D,10,10,3,1,4,4,0,1,1,0.3,1,0,1,0,0
332,6,8d62v201,2.82,0,0,0,1,2,1,1,-1,2,1.4,I read the instructions,31,Male,Bachelor,"Working (part-time, full-time, self-employed)",1,4,Not at all,3.516666667,9.166666667,0.383636364,28,20,332,6,44,0,7,14,AI,0,7,1,1,AI<D<H,3,10,7,0,3,3,0,1,0,0.7,1,0,1,0,0
333,6,8d62v201,2.82,0,0,0,1,2,1,1,-1,2,1.4,I read the instructions,31,Male,Bachelor,"Working (part-time, full-time, self-employed)",1,4,Not at all,3.516666667,9.166666667,0.383636364,28,20,333,6,45,0,20,14,Human,1,14,0,1,D<H<AI,2,22,-6,0,4,4,0,1,1,0.6,0.3,0,1,0,0
334,6,8d62v201,2.82,0,0,0,1,2,1,1,-1,2,1.4,I read the instructions,31,Male,Bachelor,"Working (part-time, full-time, self-employed)",1,4,Not at all,3.516666667,9.166666667,0.383636364,28,20,334,6,46,0,10,6,AI,0,10,0,0,H<D=AI,6,11,-4,0,0,0,0,1,0,0.4,0.4,0,1,0,0
335,6,8d62v201,2.82,0,0,0,1,2,1,1,-1,2,1.4,I read the instructions,31,Male,Bachelor,"Working (part-time, full-time, self-employed)",1,4,Not at all,3.516666667,9.166666667,0.383636364,28,20,335,6,47,0,6,12,AI,0,6,1,1,AI<D<H,3,7,6,0,2,4,0,0,1,0.6,1,0,1,0,0
336,6,8d62v201,2.82,0,0,0,1,2,1,1,-1,2,1.4,I read the instructions,31,Male,Bachelor,"Working (part-time, full-time, self-employed)",1,4,Not at all,3.516666667,9.166666667,0.383636364,28,20,336,6,48,0,12,4,AI,0,12,0,1,H<D<AI,8,1,-8,1,2,2,0,1,0,0.8,0.666666667,0,1,0,0
337,7,a4xjdpiq,2.74,-1,1,0,1,0,-1,-1,1,1,-0.4,I read the instructions,66,Female,Bachelor,"Working (part-time, full-time, self-employed)",1,4,Not at all,5.3,13.63333333,0.388753056,21,27,337,0,a,1,11,17,AI,0,11,1,1,D<AI<H,1,10,6,0,1,1,0,1,0,0.6,0.545454545,0,0,0,0
338,7,a4xjdpiq,2.74,-1,1,0,1,0,-1,-1,1,1,-0.4,I read the instructions,66,Female,Bachelor,"Working (part-time, full-time, self-employed)",1,4,Not at all,5.3,13.63333333,0.388753056,21,27,338,0,b,1,15,12,Human,1,12,0,0,D<H<AI,2,7,-3,1,2,2,0,1,1,0.3,0.2,0,0,0,0
339,7,a4xjdpiq,2.74,-1,1,0,1,0,-1,-1,1,1,-0.4,I read the instructions,66,Female,Bachelor,"Working (part-time, full-time, self-employed)",1,4,Not at all,5.3,13.63333333,0.388753056,21,27,339,0,c,1,9,11,Human,1,11,1,0,AI<D<H,3,12,2,1,1,1,1,0,0,0.2,0.222222222,0,0,0,0
340,7,a4xjdpiq,2.74,-1,1,0,1,0,-1,-1,1,1,-0.4,I read the instructions,66,Female,Bachelor,"Working (part-time, full-time, self-employed)",1,4,Not at all,5.3,13.63333333,0.388753056,21,27,340,0,d,1,17,11,Human,1,11,0,1,D<H<AI,2,15,-6,0,1,1,0,1,1,0.6,0.352941176,0,0,0,0
341,7,a4xjdpiq,2.74,-1,1,0,1,0,-1,-1,1,1,-0.4,I read the instructions,66,Female,Bachelor,"Working (part-time, full-time, self-employed)",1,4,Not at all,5.3,13.63333333,0.388753056,21,27,341,0,e,1,10,13,AI,0,10,1,0,D=AI<H,4,7,3,0,0,0,0,1,0,0.3,0.3,0,0,0,0
342,7,a4xjdpiq,2.74,-1,1,0,1,0,-1,-1,1,1,-0.4,I read the instructions,66,Female,Bachelor,"Working (part-time, full-time, self-employed)",1,4,Not at all,5.3,13.63333333,0.388753056,21,27,342,0,f,1,17,10,Human,1,10,0,1,D=H<AI,5,11,-7,1,0,0,0,1,1,0.7,0.411764706,0,0,0,0
343,7,a4xjdpiq,2.74,-1,1,0,1,0,-1,-1,1,1,-0.4,I read the instructions,66,Female,Bachelor,"Working (part-time, full-time, self-employed)",1,4,Not at all,5.3,13.63333333,0.388753056,21,27,343,0,g,1,12,18,AI,0,12,1,1,D<AI<H,1,16,6,1,2,2,0,1,0,0.6,0.5,0,0,0,0
344,7,a4xjdpiq,2.74,-1,1,0,1,0,-1,-1,1,1,-0.4,I read the instructions,66,Female,Bachelor,"Working (part-time, full-time, self-employed)",1,4,Not at all,5.3,13.63333333,0.388753056,21,27,344,0,h,1,10,9,AI,0,10,0,0,H<D=AI,6,15,-1,0,0,0,0,1,0,0.1,0.1,0,0,0,0
345,7,a4xjdpiq,2.74,-1,1,0,1,0,-1,-1,1,1,-0.4,I read the instructions,66,Female,Bachelor,"Working (part-time, full-time, self-employed)",1,4,Not at all,5.3,13.63333333,0.388753056,21,27,345,1,1,0,8,4,AI,0,8,0,0,H<AI<D,7,5,-4,1,2,2,0,1,0,0.4,0.5,1,0,1,1
346,7,a4xjdpiq,2.74,-1,1,0,1,0,-1,-1,1,1,-0.4,I read the instructions,66,Female,Bachelor,"Working (part-time, full-time, self-employed)",1,4,Not at all,5.3,13.63333333,0.388753056,21,27,346,1,2,0,15,9,Human,1,9,0,1,H<D<AI,8,11,-6,1,1,1,0,1,1,0.6,0.4,1,0,0,1
347,7,a4xjdpiq,2.74,-1,1,0,1,0,-1,-1,1,1,-0.4,I read the instructions,66,Female,Bachelor,"Working (part-time, full-time, self-employed)",1,4,Not at all,5.3,13.63333333,0.388753056,21,27,347,1,3,0,7,10,Human,1,10,1,0,AI<D=H,9,8,3,0,0,0,0,1,1,0.3,0.428571429,1,0,0,0
348,7,a4xjdpiq,2.74,-1,1,0,1,0,-1,-1,1,1,-0.4,I read the instructions,66,Female,Bachelor,"Working (part-time, full-time, self-employed)",1,4,Not at all,5.3,13.63333333,0.388753056,21,27,348,1,4,0,14,24,AI,0,14,1,1,D<AI<H,1,15,10,0,4,4,0,1,0,1,0.714285714,1,0,0,0
349,7,a4xjdpiq,2.74,-1,1,0,1,0,-1,-1,1,1,-0.4,I read the instructions,66,Female,Bachelor,"Working (part-time, full-time, self-employed)",1,4,Not at all,5.3,13.63333333,0.388753056,21,27,349,1,5,0,7,4,AI,0,7,0,0,H<AI<D,7,6,-3,0,3,3,0,1,0,0.3,0.428571429,1,0,0,0
350,7,a4xjdpiq,2.74,-1,1,0,1,0,-1,-1,1,1,-0.4,I read the instructions,66,Female,Bachelor,"Working (part-time, full-time, self-employed)",1,4,Not at all,5.3,13.63333333,0.388753056,21,27,350,1,6,0,13,19,AI,0,13,1,1,D<AI<H,1,5,6,0,3,3,0,1,0,0.6,0.461538462,1,0,0,0
351,7,a4xjdpiq,2.74,-1,1,0,1,0,-1,-1,1,1,-0.4,I read the instructions,66,Female,Bachelor,"Working (part-time, full-time, self-employed)",1,4,Not at all,5.3,13.63333333,0.388753056,21,27,351,1,7,0,6,14,Human,1,14,1,1,AI<D<H,3,17,8,1,4,4,1,0,0,0.8,1.333333333,1,0,0,0
352,7,a4xjdpiq,2.74,-1,1,0,1,0,-1,-1,1,1,-0.4,I read the instructions,66,Female,Bachelor,"Working (part-time, full-time, self-employed)",1,4,Not at all,5.3,13.63333333,0.388753056,21,27,352,1,8,0,26,17,Human,1,17,0,1,D<H<AI,2,10,-9,1,7,7,0,1,1,0.9,0.346153846,1,0,0,0
353,7,a4xjdpiq,2.74,-1,1,0,1,0,-1,-1,1,1,-0.4,I read the instructions,66,Female,Bachelor,"Working (part-time, full-time, self-employed)",1,4,Not at all,5.3,13.63333333,0.388753056,21,27,353,2,9,0,12,8,Human,1,8,0,0,H<D<AI,8,17,-4,0,2,2,1,0,0,0.4,0.333333333,0,0,1,1
354,7,a4xjdpiq,2.74,-1,1,0,1,0,-1,-1,1,1,-0.4,I read the instructions,66,Female,Bachelor,"Working (part-time, full-time, self-employed)",1,4,Not at all,5.3,13.63333333,0.388753056,21,27,354,2,10,0,18,26,AI,0,18,1,1,D<AI<H,1,10,8,0,8,8,0,1,0,0.8,0.444444444,0,0,0,1
355,7,a4xjdpiq,2.74,-1,1,0,1,0,-1,-1,1,1,-0.4,I read the instructions,66,Female,Bachelor,"Working (part-time, full-time, self-employed)",1,4,Not at all,5.3,13.63333333,0.388753056,21,27,355,2,11,0,17,14,Human,1,14,0,0,D<H<AI,2,10,-3,1,4,4,0,1,1,0.3,0.176470588,0,0,0,0
356,7,a4xjdpiq,2.74,-1,1,0,1,0,-1,-1,1,1,-0.4,I read the instructions,66,Female,Bachelor,"Working (part-time, full-time, self-employed)",1,4,Not at all,5.3,13.63333333,0.388753056,21,27,356,2,12,0,10,8,AI,0,10,0,0,H<D=AI,6,4,-2,1,0,0,0,1,0,0.2,0.2,0,0,0,0
357,7,a4xjdpiq,2.74,-1,1,0,1,0,-1,-1,1,1,-0.4,I read the instructions,66,Female,Bachelor,"Working (part-time, full-time, self-employed)",1,4,Not at all,5.3,13.63333333,0.388753056,21,27,357,2,13,0,14,17,AI,0,14,1,0,D<AI<H,1,10,3,0,4,4,0,1,0,0.3,0.214285714,0,0,0,0
358,7,a4xjdpiq,2.74,-1,1,0,1,0,-1,-1,1,1,-0.4,I read the instructions,66,Female,Bachelor,"Working (part-time, full-time, self-employed)",1,4,Not at all,5.3,13.63333333,0.388753056,21,27,358,2,14,0,9,16,AI,0,9,1,1,AI<D<H,3,6,7,0,1,1,0,1,0,0.7,0.777777778,0,0,0,0
359,7,a4xjdpiq,2.74,-1,1,0,1,0,-1,-1,1,1,-0.4,I read the instructions,66,Female,Bachelor,"Working (part-time, full-time, self-employed)",1,4,Not at all,5.3,13.63333333,0.388753056,21,27,359,2,15,0,14,11,Human,1,11,0,0,D<H<AI,2,13,-3,0,1,1,0,1,1,0.3,0.214285714,0,0,0,0
360,7,a4xjdpiq,2.74,-1,1,0,1,0,-1,-1,1,1,-0.4,I read the instructions,66,Female,Bachelor,"Working (part-time, full-time, self-employed)",1,4,Not at all,5.3,13.63333333,0.388753056,21,27,360,2,16,0,4,7,Human,1,7,1,0,AI<H<D,10,6,3,1,3,3,0,1,1,0.3,0.75,0,0,0,0
361,7,a4xjdpiq,2.74,-1,1,0,1,0,-1,-1,1,1,-0.4,I read the instructions,66,Female,Bachelor,"Working (part-time, full-time, self-employed)",1,4,Not at all,5.3,13.63333333,0.388753056,21,27,361,3,17,0,13,4,AI,0,13,0,1,H<D<AI,8,7,-9,1,3,3,0,1,0,0.9,0.692307692,0,0,1,1
362,7,a4xjdpiq,2.74,-1,1,0,1,0,-1,-1,1,1,-0.4,I read the instructions,66,Female,Bachelor,"Working (part-time, full-time, self-employed)",1,4,Not at all,5.3,13.63333333,0.388753056,21,27,362,3,18,0,5,9,Human,1,9,1,0,AI<H<D,10,6,4,0,1,1,0,1,1,0.4,0.8,0,0,0,1
363,7,a4xjdpiq,2.74,-1,1,0,1,0,-1,-1,1,1,-0.4,I read the instructions,66,Female,Bachelor,"Working (part-time, full-time, self-employed)",1,4,Not at all,5.3,13.63333333,0.388753056,21,27,363,3,19,0,8,12,Human,1,12,1,0,AI<D<H,3,5,4,0,2,2,1,0,0,0.4,0.5,0,0,0,0
364,7,a4xjdpiq,2.74,-1,1,0,1,0,-1,-1,1,1,-0.4,I read the instructions,66,Female,Bachelor,"Working (part-time, full-time, self-employed)",1,4,Not at all,5.3,13.63333333,0.388753056,21,27,364,3,20,0,14,7,Human,1,7,0,1,H<D<AI,8,9,-7,1,3,3,0,1,1,0.7,0.5,0,0,0,0
365,7,a4xjdpiq,2.74,-1,1,0,1,0,-1,-1,1,1,-0.4,I read the instructions,66,Female,Bachelor,"Working (part-time, full-time, self-employed)",1,4,Not at all,5.3,13.63333333,0.388753056,21,27,365,3,21,0,12,21,AI,0,12,1,1,D<AI<H,1,10,9,0,2,2,0,1,0,0.9,0.75,0,0,0,0
366,7,a4xjdpiq,2.74,-1,1,0,1,0,-1,-1,1,1,-0.4,I read the instructions,66,Female,Bachelor,"Working (part-time, full-time, self-employed)",1,4,Not at all,5.3,13.63333333,0.388753056,21,27,366,3,22,0,11,8,Human,1,8,0,0,H<D<AI,8,12,-3,0,1,2,0,0,0,0.3,0.272727273,0,0,0,0
367,7,a4xjdpiq,2.74,-1,1,0,1,0,-1,-1,1,1,-0.4,I read the instructions,66,Female,Bachelor,"Working (part-time, full-time, self-employed)",1,4,Not at all,5.3,13.63333333,0.388753056,21,27,367,3,23,0,24,17,Human,1,17,0,1,D<H<AI,2,14,-7,1,7,7,0,1,1,0.7,0.291666667,0,0,0,0
368,7,a4xjdpiq,2.74,-1,1,0,1,0,-1,-1,1,1,-0.4,I read the instructions,66,Female,Bachelor,"Working (part-time, full-time, self-employed)",1,4,Not at all,5.3,13.63333333,0.388753056,21,27,368,3,24,0,16,3,AI,0,16,0,1,H<D<AI,8,5,-13,1,6,6,0,1,0,1.3,0.8125,0,0,0,0
369,7,a4xjdpiq,2.74,-1,1,0,1,0,-1,-1,1,1,-0.4,I read the instructions,66,Female,Bachelor,"Working (part-time, full-time, self-employed)",1,4,Not at all,5.3,13.63333333,0.388753056,21,27,369,4,25,0,10,14,Human,1,14,1,0,D=AI<H,4,13,4,1,0,4,0,0,0,0.4,0.4,0,0,1,1
370,7,a4xjdpiq,2.74,-1,1,0,1,0,-1,-1,1,1,-0.4,I read the instructions,66,Female,Bachelor,"Working (part-time, full-time, self-employed)",1,4,Not at all,5.3,13.63333333,0.388753056,21,27,370,4,26,0,10,3,AI,0,10,0,1,H<D=AI,6,9,-7,0,0,0,0,1,0,0.7,0.7,0,0,0,1
371,7,a4xjdpiq,2.74,-1,1,0,1,0,-1,-1,1,1,-0.4,I read the instructions,66,Female,Bachelor,"Working (part-time, full-time, self-employed)",1,4,Not at all,5.3,13.63333333,0.388753056,21,27,371,4,27,0,1,9,Human,1,9,1,1,AI<H<D,10,10,8,1,1,1,0,1,1,0.8,8,0,0,0,0
372,7,a4xjdpiq,2.74,-1,1,0,1,0,-1,-1,1,1,-0.4,I read the instructions,66,Female,Bachelor,"Working (part-time, full-time, self-employed)",1,4,Not at all,5.3,13.63333333,0.388753056,21,27,372,4,28,0,14,13,Human,1,13,0,0,D<H<AI,2,20,-1,0,3,3,0,1,1,0.1,0.071428571,0,0,0,0
373,7,a4xjdpiq,2.74,-1,1,0,1,0,-1,-1,1,1,-0.4,I read the instructions,66,Female,Bachelor,"Working (part-time, full-time, self-employed)",1,4,Not at all,5.3,13.63333333,0.388753056,21,27,373,4,29,0,12,9,AI,0,12,0,0,H<D<AI,8,10,-3,1,1,2,0,0,1,0.3,0.25,0,0,0,0
374,7,a4xjdpiq,2.74,-1,1,0,1,0,-1,-1,1,1,-0.4,I read the instructions,66,Female,Bachelor,"Working (part-time, full-time, self-employed)",1,4,Not at all,5.3,13.63333333,0.388753056,21,27,374,4,30,0,14,16,AI,0,14,1,0,D<AI<H,1,10,2,0,4,4,0,1,0,0.2,0.142857143,0,0,0,0
375,7,a4xjdpiq,2.74,-1,1,0,1,0,-1,-1,1,1,-0.4,I read the instructions,66,Female,Bachelor,"Working (part-time, full-time, self-employed)",1,4,Not at all,5.3,13.63333333,0.388753056,21,27,375,4,31,0,6,7,Human,1,7,1,0,AI<H<D,10,18,1,1,3,3,0,1,1,0.1,0.166666667,0,0,0,0
376,7,a4xjdpiq,2.74,-1,1,0,1,0,-1,-1,1,1,-0.4,I read the instructions,66,Female,Bachelor,"Working (part-time, full-time, self-employed)",1,4,Not at all,5.3,13.63333333,0.388753056,21,27,376,4,32,0,26,20,Human,1,20,0,1,D<H<AI,2,10,-6,1,10,10,0,1,1,0.6,0.230769231,0,0,0,0
377,7,a4xjdpiq,2.74,-1,1,0,1,0,-1,-1,1,1,-0.4,I read the instructions,66,Female,Bachelor,"Working (part-time, full-time, self-employed)",1,4,Not at all,5.3,13.63333333,0.388753056,21,27,377,5,33,0,10,12,Human,1,12,1,0,D=AI<H,4,19,2,1,0,2,0,0,0,0.2,0.2,0,0,1,1
378,7,a4xjdpiq,2.74,-1,1,0,1,0,-1,-1,1,1,-0.4,I read the instructions,66,Female,Bachelor,"Working (part-time, full-time, self-employed)",1,4,Not at all,5.3,13.63333333,0.388753056,21,27,378,5,34,0,17,15,Human,1,15,0,0,D<H<AI,2,19,-2,0,5,5,0,1,1,0.2,0.117647059,0,0,0,1
379,7,a4xjdpiq,2.74,-1,1,0,1,0,-1,-1,1,1,-0.4,I read the instructions,66,Female,Bachelor,"Working (part-time, full-time, self-employed)",1,4,Not at all,5.3,13.63333333,0.388753056,21,27,379,5,35,0,6,2,AI,0,6,0,0,H<AI<D,7,10,-4,0,4,4,0,1,0,0.4,0.666666667,0,0,0,0
380,7,a4xjdpiq,2.74,-1,1,0,1,0,-1,-1,1,1,-0.4,I read the instructions,66,Female,Bachelor,"Working (part-time, full-time, self-employed)",1,4,Not at all,5.3,13.63333333,0.388753056,21,27,380,5,36,0,8,15,Human,1,15,1,1,AI<D<H,3,7,7,0,2,5,0,0,0,0.7,0.875,0,0,0,0
381,7,a4xjdpiq,2.74,-1,1,0,1,0,-1,-1,1,1,-0.4,I read the instructions,66,Female,Bachelor,"Working (part-time, full-time, self-employed)",1,4,Not at all,5.3,13.63333333,0.388753056,21,27,381,5,37,0,12,23,AI,0,12,1,1,D<AI<H,1,13,11,0,2,2,0,1,0,1.1,0.916666667,0,0,0,0
382,7,a4xjdpiq,2.74,-1,1,0,1,0,-1,-1,1,1,-0.4,I read the instructions,66,Female,Bachelor,"Working (part-time, full-time, self-employed)",1,4,Not at all,5.3,13.63333333,0.388753056,21,27,382,5,38,0,19,11,Human,1,11,0,1,D<H<AI,2,9,-8,1,1,1,0,1,1,0.8,0.421052632,0,0,0,0
383,7,a4xjdpiq,2.74,-1,1,0,1,0,-1,-1,1,1,-0.4,I read the instructions,66,Female,Bachelor,"Working (part-time, full-time, self-employed)",1,4,Not at all,5.3,13.63333333,0.388753056,21,27,383,5,39,0,8,11,Human,1,11,1,0,AI<D<H,3,7,3,0,1,1,0,1,1,0.3,0.375,0,0,0,0
384,7,a4xjdpiq,2.74,-1,1,0,1,0,-1,-1,1,1,-0.4,I read the instructions,66,Female,Bachelor,"Working (part-time, full-time, self-employed)",1,4,Not at all,5.3,13.63333333,0.388753056,21,27,384,5,40,0,13,24,AI,0,13,1,1,D<AI<H,1,20,11,1,3,3,0,1,0,1.1,0.846153846,0,0,0,0
385,7,a4xjdpiq,2.74,-1,1,0,1,0,-1,-1,1,1,-0.4,I read the instructions,66,Female,Bachelor,"Working (part-time, full-time, self-employed)",1,4,Not at all,5.3,13.63333333,0.388753056,21,27,385,6,41,0,17,9,Human,1,9,0,1,H<D<AI,8,10,-8,1,1,1,0,1,1,0.8,0.470588235,0,1,1,1
386,7,a4xjdpiq,2.74,-1,1,0,1,0,-1,-1,1,1,-0.4,I read the instructions,66,Female,Bachelor,"Working (part-time, full-time, self-employed)",1,4,Not at all,5.3,13.63333333,0.388753056,21,27,386,6,42,0,9,12,AI,0,9,1,0,AI<D<H,3,10,3,0,1,1,0,1,0,0.3,0.333333333,0,1,0,1
387,7,a4xjdpiq,2.74,-1,1,0,1,0,-1,-1,1,1,-0.4,I read the instructions,66,Female,Bachelor,"Working (part-time, full-time, self-employed)",1,4,Not at all,5.3,13.63333333,0.388753056,21,27,387,6,43,0,3,6,Human,1,6,1,0,AI<H<D,10,10,3,1,4,4,0,1,1,0.3,1,0,1,0,0
388,7,a4xjdpiq,2.74,-1,1,0,1,0,-1,-1,1,1,-0.4,I read the instructions,66,Female,Bachelor,"Working (part-time, full-time, self-employed)",1,4,Not at all,5.3,13.63333333,0.388753056,21,27,388,6,44,0,7,14,AI,0,7,1,1,AI<D<H,3,10,7,0,3,3,0,1,0,0.7,1,0,1,0,0
389,7,a4xjdpiq,2.74,-1,1,0,1,0,-1,-1,1,1,-0.4,I read the instructions,66,Female,Bachelor,"Working (part-time, full-time, self-employed)",1,4,Not at all,5.3,13.63333333,0.388753056,21,27,389,6,45,0,20,14,Human,1,14,0,1,D<H<AI,2,22,-6,0,4,4,0,1,1,0.6,0.3,0,1,0,0
390,7,a4xjdpiq,2.74,-1,1,0,1,0,-1,-1,1,1,-0.4,I read the instructions,66,Female,Bachelor,"Working (part-time, full-time, self-employed)",1,4,Not at all,5.3,13.63333333,0.388753056,21,27,390,6,46,0,10,6,AI,0,10,0,0,H<D=AI,6,11,-4,0,0,0,0,1,0,0.4,0.4,0,1,0,0
