running_id,participant_id,code,payoff,tr,PQ1,PQ2,PQ3,PQ4,PQ6,PQ7,PQ8,PQ9,PQ10,IMC,age,gender,education,work_status,comp_skill,forecasting_skill,similar_exp,time_inst,time_total,tinst_ttot,a,b,running_id,page,round,test_round,AI_forecast,human_forecast,selected_forecast,select_human,selected_quant,guidance_followed,g1,g2,g3,neg_small,neg_large,pos_dir,large_mag,sort,sort_num,demand,adjustment,value,min_devtomean,dev_to_mean,h_AI_samedev,closer_to_mean,h_closer_tomean,adj_vs_mean,adj_vs_AI,earlier_rounds,later_rounds,directly_after_feedback
1,1,lehhguxe,2.54,70,1,-1,0,2,2,2,2,-1,1,I read the instructions,34,Male,Bachelor,"Working (part-time, full-time, self-employed)",4,4,Not at all,11.33333333,19.2,0.590277778,26,22,1,0,a,1,11,17,AI,0,11,1,0,1,0,0,0,1,1,D<AI<H,1,10,6,0,1,1,0,1,0,0.6,0.545454545,0,0,0
2,1,lehhguxe,2.54,70,1,-1,0,2,2,2,2,-1,1,I read the instructions,34,Male,Bachelor,"Working (part-time, full-time, self-employed)",4,4,Not at all,11.33333333,19.2,0.590277778,26,22,2,0,b,1,15,12,AI,0,15,1,0,0,1,1,0,0,0,D<H<AI,2,7,-3,1,2,5,0,0,1,0.3,0.2,0,0,0
3,1,lehhguxe,2.54,70,1,-1,0,2,2,2,2,-1,1,I read the instructions,34,Male,Bachelor,"Working (part-time, full-time, self-employed)",4,4,Not at all,11.33333333,19.2,0.590277778,26,22,3,0,c,1,9,11,AI,0,9,1,0,1,0,0,0,1,0,AI<D<H,3,12,2,1,1,1,1,0,0,0.2,0.222222222,0,0,0
4,1,lehhguxe,2.54,70,1,-1,0,2,2,2,2,-1,1,I read the instructions,34,Male,Bachelor,"Working (part-time, full-time, self-employed)",4,4,Not at all,11.33333333,19.2,0.590277778,26,22,4,0,d,1,17,11,Human,1,11,1,1,0,0,0,1,0,1,D<H<AI,2,15,-6,0,1,1,0,1,1,0.6,0.352941176,0,0,0
5,1,lehhguxe,2.54,70,1,-1,0,2,2,2,2,-1,1,I read the instructions,34,Male,Bachelor,"Working (part-time, full-time, self-employed)",4,4,Not at all,11.33333333,19.2,0.590277778,26,22,5,0,e,1,10,13,AI,0,10,1,0,1,0,0,0,1,0,D=AI<H,4,7,3,0,0,0,0,1,0,0.3,0.3,0,0,0
6,1,lehhguxe,2.54,70,1,-1,0,2,2,2,2,-1,1,I read the instructions,34,Male,Bachelor,"Working (part-time, full-time, self-employed)",4,4,Not at all,11.33333333,19.2,0.590277778,26,22,6,0,f,1,17,10,Human,1,10,1,1,0,0,0,1,0,1,D=H<AI,5,11,-7,1,0,0,0,1,1,0.7,0.411764706,0,0,0
7,1,lehhguxe,2.54,70,1,-1,0,2,2,2,2,-1,1,I read the instructions,34,Male,Bachelor,"Working (part-time, full-time, self-employed)",4,4,Not at all,11.33333333,19.2,0.590277778,26,22,7,0,g,1,12,18,AI,0,12,1,0,1,0,0,0,1,1,D<AI<H,1,16,6,1,2,2,0,1,0,0.6,0.5,0,0,0
8,1,lehhguxe,2.54,70,1,-1,0,2,2,2,2,-1,1,I read the instructions,34,Male,Bachelor,"Working (part-time, full-time, self-employed)",4,4,Not at all,11.33333333,19.2,0.590277778,26,22,8,0,h,1,10,9,AI,0,10,1,0,0,1,1,0,0,0,H<D=AI,6,15,-1,0,0,0,0,1,0,0.1,0.1,0,0,0
9,1,lehhguxe,2.54,70,1,-1,0,2,2,2,2,-1,1,I read the instructions,34,Male,Bachelor,"Working (part-time, full-time, self-employed)",4,4,Not at all,11.33333333,19.2,0.590277778,26,22,9,1,1,0,8,4,Human,1,4,0,0,0,0,1,0,0,0,H<AI<D,7,5,-4,1,2,6,0,0,0,0.4,0.5,1,0,1
10,1,lehhguxe,2.54,70,1,-1,0,2,2,2,2,-1,1,I read the instructions,34,Male,Bachelor,"Working (part-time, full-time, self-employed)",4,4,Not at all,11.33333333,19.2,0.590277778,26,22,10,1,2,0,15,9,Human,1,9,1,1,0,0,0,1,0,1,H<D<AI,8,11,-6,1,1,1,0,1,1,0.6,0.4,1,0,0
11,1,lehhguxe,2.54,70,1,-1,0,2,2,2,2,-1,1,I read the instructions,34,Male,Bachelor,"Working (part-time, full-time, self-employed)",4,4,Not at all,11.33333333,19.2,0.590277778,26,22,11,1,3,0,7,10,AI,0,7,1,0,1,0,0,0,1,0,AI<D=H,9,8,3,0,0,3,0,0,1,0.3,0.428571429,1,0,0
12,1,lehhguxe,2.54,70,1,-1,0,2,2,2,2,-1,1,I read the instructions,34,Male,Bachelor,"Working (part-time, full-time, self-employed)",4,4,Not at all,11.33333333,19.2,0.590277778,26,22,12,1,4,0,14,24,AI,0,14,1,0,1,0,0,0,1,1,D<AI<H,1,15,10,0,4,4,0,1,0,1,0.714285714,1,0,0
13,1,lehhguxe,2.54,70,1,-1,0,2,2,2,2,-1,1,I read the instructions,34,Male,Bachelor,"Working (part-time, full-time, self-employed)",4,4,Not at all,11.33333333,19.2,0.590277778,26,22,13,1,5,0,7,4,AI,0,7,1,0,0,1,1,0,0,0,H<AI<D,7,6,-3,0,3,3,0,1,0,0.3,0.428571429,1,0,0
14,1,lehhguxe,2.54,70,1,-1,0,2,2,2,2,-1,1,I read the instructions,34,Male,Bachelor,"Working (part-time, full-time, self-employed)",4,4,Not at all,11.33333333,19.2,0.590277778,26,22,14,1,6,0,13,19,Human,1,19,0,0,0,0,0,0,1,1,D<AI<H,1,5,6,0,3,9,0,0,0,0.6,0.461538462,1,0,0
15,1,lehhguxe,2.54,70,1,-1,0,2,2,2,2,-1,1,I read the instructions,34,Male,Bachelor,"Working (part-time, full-time, self-employed)",4,4,Not at all,11.33333333,19.2,0.590277778,26,22,15,1,7,0,6,14,Human,1,14,0,0,0,0,0,0,1,1,AI<D<H,3,17,8,1,4,4,1,0,0,0.8,1.333333333,1,0,0
16,1,lehhguxe,2.54,70,1,-1,0,2,2,2,2,-1,1,I read the instructions,34,Male,Bachelor,"Working (part-time, full-time, self-employed)",4,4,Not at all,11.33333333,19.2,0.590277778,26,22,16,1,8,0,26,17,Human,1,17,1,1,0,0,0,1,0,1,D<H<AI,2,10,-9,1,7,7,0,1,1,0.9,0.346153846,1,0,0
17,1,lehhguxe,2.54,70,1,-1,0,2,2,2,2,-1,1,I read the instructions,34,Male,Bachelor,"Working (part-time, full-time, self-employed)",4,4,Not at all,11.33333333,19.2,0.590277778,26,22,17,2,9,0,12,8,AI,0,12,1,0,0,1,1,0,0,0,H<D<AI,8,17,-4,0,2,2,1,0,0,0.4,0.333333333,0,0,1
18,1,lehhguxe,2.54,70,1,-1,0,2,2,2,2,-1,1,I read the instructions,34,Male,Bachelor,"Working (part-time, full-time, self-employed)",4,4,Not at all,11.33333333,19.2,0.590277778,26,22,18,2,10,0,18,26,AI,0,18,1,0,1,0,0,0,1,1,D<AI<H,1,10,8,0,8,8,0,1,0,0.8,0.444444444,0,0,0
19,1,lehhguxe,2.54,70,1,-1,0,2,2,2,2,-1,1,I read the instructions,34,Male,Bachelor,"Working (part-time, full-time, self-employed)",4,4,Not at all,11.33333333,19.2,0.590277778,26,22,19,2,11,0,17,14,AI,0,17,1,0,0,1,1,0,0,0,D<H<AI,2,10,-3,1,4,7,0,0,1,0.3,0.176470588,0,0,0
20,1,lehhguxe,2.54,70,1,-1,0,2,2,2,2,-1,1,I read the instructions,34,Male,Bachelor,"Working (part-time, full-time, self-employed)",4,4,Not at all,11.33333333,19.2,0.590277778,26,22,20,2,12,0,10,8,AI,0,10,1,0,0,1,1,0,0,0,H<D=AI,6,4,-2,1,0,0,0,1,0,0.2,0.2,0,0,0
21,1,lehhguxe,2.54,70,1,-1,0,2,2,2,2,-1,1,I read the instructions,34,Male,Bachelor,"Working (part-time, full-time, self-employed)",4,4,Not at all,11.33333333,19.2,0.590277778,26,22,21,2,13,0,14,17,AI,0,14,1,0,1,0,0,0,1,0,D<AI<H,1,10,3,0,4,4,0,1,0,0.3,0.214285714,0,0,0
22,1,lehhguxe,2.54,70,1,-1,0,2,2,2,2,-1,1,I read the instructions,34,Male,Bachelor,"Working (part-time, full-time, self-employed)",4,4,Not at all,11.33333333,19.2,0.590277778,26,22,22,2,14,0,9,16,Human,1,16,0,0,0,0,0,0,1,1,AI<D<H,3,6,7,0,1,6,0,0,0,0.7,0.777777778,0,0,0
23,1,lehhguxe,2.54,70,1,-1,0,2,2,2,2,-1,1,I read the instructions,34,Male,Bachelor,"Working (part-time, full-time, self-employed)",4,4,Not at all,11.33333333,19.2,0.590277778,26,22,23,2,15,0,14,11,AI,0,14,1,0,0,1,1,0,0,0,D<H<AI,2,13,-3,0,1,4,0,0,1,0.3,0.214285714,0,0,0
24,1,lehhguxe,2.54,70,1,-1,0,2,2,2,2,-1,1,I read the instructions,34,Male,Bachelor,"Working (part-time, full-time, self-employed)",4,4,Not at all,11.33333333,19.2,0.590277778,26,22,24,2,16,0,4,7,AI,0,4,1,0,1,0,0,0,1,0,AI<H<D,10,6,3,1,3,6,0,0,1,0.3,0.75,0,0,0
25,1,lehhguxe,2.54,70,1,-1,0,2,2,2,2,-1,1,I read the instructions,34,Male,Bachelor,"Working (part-time, full-time, self-employed)",4,4,Not at all,11.33333333,19.2,0.590277778,26,22,25,3,17,0,13,4,Human,1,4,1,1,0,0,0,1,0,1,H<D<AI,8,7,-9,1,3,6,0,0,0,0.9,0.692307692,0,0,1
26,1,lehhguxe,2.54,70,1,-1,0,2,2,2,2,-1,1,I read the instructions,34,Male,Bachelor,"Working (part-time, full-time, self-employed)",4,4,Not at all,11.33333333,19.2,0.590277778,26,22,26,3,18,0,5,9,AI,0,5,1,0,1,0,0,0,1,0,AI<H<D,10,6,4,0,1,5,0,0,1,0.4,0.8,0,0,0
27,1,lehhguxe,2.54,70,1,-1,0,2,2,2,2,-1,1,I read the instructions,34,Male,Bachelor,"Working (part-time, full-time, self-employed)",4,4,Not at all,11.33333333,19.2,0.590277778,26,22,27,3,19,0,8,12,Human,1,12,0,0,0,0,0,0,1,0,AI<D<H,3,5,4,0,2,2,1,0,0,0.4,0.5,0,0,0
28,1,lehhguxe,2.54,70,1,-1,0,2,2,2,2,-1,1,I read the instructions,34,Male,Bachelor,"Working (part-time, full-time, self-employed)",4,4,Not at all,11.33333333,19.2,0.590277778,26,22,28,3,20,0,14,7,Human,1,7,1,1,0,0,0,1,0,1,H<D<AI,8,9,-7,1,3,3,0,1,1,0.7,0.5,0,0,0
29,1,lehhguxe,2.54,70,1,-1,0,2,2,2,2,-1,1,I read the instructions,34,Male,Bachelor,"Working (part-time, full-time, self-employed)",4,4,Not at all,11.33333333,19.2,0.590277778,26,22,29,3,21,0,12,21,AI,0,12,1,0,1,0,0,0,1,1,D<AI<H,1,10,9,0,2,2,0,1,0,0.9,0.75,0,0,0
30,1,lehhguxe,2.54,70,1,-1,0,2,2,2,2,-1,1,I read the instructions,34,Male,Bachelor,"Working (part-time, full-time, self-employed)",4,4,Not at all,11.33333333,19.2,0.590277778,26,22,30,3,22,0,11,8,AI,0,11,1,0,0,1,1,0,0,0,H<D<AI,8,12,-3,0,1,1,0,1,0,0.3,0.272727273,0,0,0
31,1,lehhguxe,2.54,70,1,-1,0,2,2,2,2,-1,1,I read the instructions,34,Male,Bachelor,"Working (part-time, full-time, self-employed)",4,4,Not at all,11.33333333,19.2,0.590277778,26,22,31,3,23,0,24,17,Human,1,17,1,1,0,0,0,1,0,1,D<H<AI,2,14,-7,1,7,7,0,1,1,0.7,0.291666667,0,0,0
32,1,lehhguxe,2.54,70,1,-1,0,2,2,2,2,-1,1,I read the instructions,34,Male,Bachelor,"Working (part-time, full-time, self-employed)",4,4,Not at all,11.33333333,19.2,0.590277778,26,22,32,3,24,0,16,3,Human,1,3,1,1,0,0,0,1,0,1,H<D<AI,8,5,-13,1,6,7,0,0,0,1.3,0.8125,0,0,0
33,1,lehhguxe,2.54,70,1,-1,0,2,2,2,2,-1,1,I read the instructions,34,Male,Bachelor,"Working (part-time, full-time, self-employed)",4,4,Not at all,11.33333333,19.2,0.590277778,26,22,33,4,25,0,10,14,Human,1,14,0,0,0,0,0,0,1,0,D=AI<H,4,13,4,1,0,4,0,0,0,0.4,0.4,0,0,1
34,1,lehhguxe,2.54,70,1,-1,0,2,2,2,2,-1,1,I read the instructions,34,Male,Bachelor,"Working (part-time, full-time, self-employed)",4,4,Not at all,11.33333333,19.2,0.590277778,26,22,34,4,26,0,10,3,Human,1,3,1,1,0,0,0,1,0,1,H<D=AI,6,9,-7,0,0,7,0,0,0,0.7,0.7,0,0,0
35,1,lehhguxe,2.54,70,1,-1,0,2,2,2,2,-1,1,I read the instructions,34,Male,Bachelor,"Working (part-time, full-time, self-employed)",4,4,Not at all,11.33333333,19.2,0.590277778,26,22,35,4,27,0,1,9,AI,0,1,1,0,1,0,0,0,1,1,AI<H<D,10,10,8,1,1,9,0,0,1,0.8,8,0,0,0
36,1,lehhguxe,2.54,70,1,-1,0,2,2,2,2,-1,1,I read the instructions,34,Male,Bachelor,"Working (part-time, full-time, self-employed)",4,4,Not at all,11.33333333,19.2,0.590277778,26,22,36,4,28,0,14,13,AI,0,14,1,0,0,1,1,0,0,0,D<H<AI,2,20,-1,0,3,4,0,0,1,0.1,0.071428571,0,0,0
37,1,lehhguxe,2.54,70,1,-1,0,2,2,2,2,-1,1,I read the instructions,34,Male,Bachelor,"Working (part-time, full-time, self-employed)",4,4,Not at all,11.33333333,19.2,0.590277778,26,22,37,4,29,0,12,9,AI,0,12,1,0,0,1,1,0,0,0,H<D<AI,8,10,-3,1,1,2,0,0,1,0.3,0.25,0,0,0
38,1,lehhguxe,2.54,70,1,-1,0,2,2,2,2,-1,1,I read the instructions,34,Male,Bachelor,"Working (part-time, full-time, self-employed)",4,4,Not at all,11.33333333,19.2,0.590277778,26,22,38,4,30,0,14,16,AI,0,14,1,0,1,0,0,0,1,0,D<AI<H,1,10,2,0,4,4,0,1,0,0.2,0.142857143,0,0,0
39,1,lehhguxe,2.54,70,1,-1,0,2,2,2,2,-1,1,I read the instructions,34,Male,Bachelor,"Working (part-time, full-time, self-employed)",4,4,Not at all,11.33333333,19.2,0.590277778,26,22,39,4,31,0,6,7,AI,0,6,1,0,1,0,0,0,1,0,AI<H<D,10,18,1,1,3,4,0,0,1,0.1,0.166666667,0,0,0
40,1,lehhguxe,2.54,70,1,-1,0,2,2,2,2,-1,1,I read the instructions,34,Male,Bachelor,"Working (part-time, full-time, self-employed)",4,4,Not at all,11.33333333,19.2,0.590277778,26,22,40,4,32,0,26,20,Human,1,20,1,1,0,0,0,1,0,1,D<H<AI,2,10,-6,1,10,10,0,1,1,0.6,0.230769231,0,0,0
41,1,lehhguxe,2.54,70,1,-1,0,2,2,2,2,-1,1,I read the instructions,34,Male,Bachelor,"Working (part-time, full-time, self-employed)",4,4,Not at all,11.33333333,19.2,0.590277778,26,22,41,5,33,0,10,12,AI,0,10,1,0,1,0,0,0,1,0,D=AI<H,4,19,2,1,0,0,0,1,0,0.2,0.2,0,0,1
42,1,lehhguxe,2.54,70,1,-1,0,2,2,2,2,-1,1,I read the instructions,34,Male,Bachelor,"Working (part-time, full-time, self-employed)",4,4,Not at all,11.33333333,19.2,0.590277778,26,22,42,5,34,0,17,15,AI,0,17,1,0,0,1,1,0,0,0,D<H<AI,2,19,-2,0,5,7,0,0,1,0.2,0.117647059,0,0,0
43,1,lehhguxe,2.54,70,1,-1,0,2,2,2,2,-1,1,I read the instructions,34,Male,Bachelor,"Working (part-time, full-time, self-employed)",4,4,Not at all,11.33333333,19.2,0.590277778,26,22,43,5,35,0,6,2,Human,1,2,0,0,0,0,1,0,0,0,H<AI<D,7,10,-4,0,4,8,0,0,0,0.4,0.666666667,0,0,0
44,1,lehhguxe,2.54,70,1,-1,0,2,2,2,2,-1,1,I read the instructions,34,Male,Bachelor,"Working (part-time, full-time, self-employed)",4,4,Not at all,11.33333333,19.2,0.590277778,26,22,44,5,36,0,8,15,Human,1,15,0,0,0,0,0,0,1,1,AI<D<H,3,7,7,0,2,5,0,0,0,0.7,0.875,0,0,0
45,1,lehhguxe,2.54,70,1,-1,0,2,2,2,2,-1,1,I read the instructions,34,Male,Bachelor,"Working (part-time, full-time, self-employed)",4,4,Not at all,11.33333333,19.2,0.590277778,26,22,45,5,37,0,12,23,Human,1,23,0,0,0,0,0,0,1,1,D<AI<H,1,13,11,0,2,13,0,0,0,1.1,0.916666667,0,0,0
46,1,lehhguxe,2.54,70,1,-1,0,2,2,2,2,-1,1,I read the instructions,34,Male,Bachelor,"Working (part-time, full-time, self-employed)",4,4,Not at all,11.33333333,19.2,0.590277778,26,22,46,5,38,0,19,11,Human,1,11,1,1,0,0,0,1,0,1,D<H<AI,2,9,-8,1,1,1,0,1,1,0.8,0.421052632,0,0,0
47,1,lehhguxe,2.54,70,1,-1,0,2,2,2,2,-1,1,I read the instructions,34,Male,Bachelor,"Working (part-time, full-time, self-employed)",4,4,Not at all,11.33333333,19.2,0.590277778,26,22,47,5,39,0,8,11,AI,0,8,1,0,1,0,0,0,1,0,AI<D<H,3,7,3,0,1,2,0,0,1,0.3,0.375,0,0,0
48,1,lehhguxe,2.54,70,1,-1,0,2,2,2,2,-1,1,I read the instructions,34,Male,Bachelor,"Working (part-time, full-time, self-employed)",4,4,Not at all,11.33333333,19.2,0.590277778,26,22,48,5,40,0,13,24,AI,0,13,1,0,1,0,0,0,1,1,D<AI<H,1,20,11,1,3,3,0,1,0,1.1,0.846153846,0,0,0
49,1,lehhguxe,2.54,70,1,-1,0,2,2,2,2,-1,1,I read the instructions,34,Male,Bachelor,"Working (part-time, full-time, self-employed)",4,4,Not at all,11.33333333,19.2,0.590277778,26,22,49,6,41,0,17,9,Human,1,9,1,1,0,0,0,1,0,1,H<D<AI,8,10,-8,1,1,1,0,1,1,0.8,0.470588235,0,1,1
50,1,lehhguxe,2.54,70,1,-1,0,2,2,2,2,-1,1,I read the instructions,34,Male,Bachelor,"Working (part-time, full-time, self-employed)",4,4,Not at all,11.33333333,19.2,0.590277778,26,22,50,6,42,0,9,12,AI,0,9,1,0,1,0,0,0,1,0,AI<D<H,3,10,3,0,1,1,0,1,0,0.3,0.333333333,0,1,0
51,1,lehhguxe,2.54,70,1,-1,0,2,2,2,2,-1,1,I read the instructions,34,Male,Bachelor,"Working (part-time, full-time, self-employed)",4,4,Not at all,11.33333333,19.2,0.590277778,26,22,51,6,43,0,3,6,AI,0,3,1,0,1,0,0,0,1,0,AI<H<D,10,10,3,1,4,7,0,0,1,0.3,1,0,1,0
52,1,lehhguxe,2.54,70,1,-1,0,2,2,2,2,-1,1,I read the instructions,34,Male,Bachelor,"Working (part-time, full-time, self-employed)",4,4,Not at all,11.33333333,19.2,0.590277778,26,22,52,6,44,0,7,14,AI,0,7,1,0,1,0,0,0,1,1,AI<D<H,3,10,7,0,3,3,0,1,0,0.7,1,0,1,0
53,1,lehhguxe,2.54,70,1,-1,0,2,2,2,2,-1,1,I read the instructions,34,Male,Bachelor,"Working (part-time, full-time, self-employed)",4,4,Not at all,11.33333333,19.2,0.590277778,26,22,53,6,45,0,20,14,Human,1,14,1,1,0,0,0,1,0,1,D<H<AI,2,22,-6,0,4,4,0,1,1,0.6,0.3,0,1,0
54,1,lehhguxe,2.54,70,1,-1,0,2,2,2,2,-1,1,I read the instructions,34,Male,Bachelor,"Working (part-time, full-time, self-employed)",4,4,Not at all,11.33333333,19.2,0.590277778,26,22,54,6,46,0,10,6,Human,1,6,0,0,0,0,1,0,0,0,H<D=AI,6,11,-4,0,0,4,0,0,0,0.4,0.4,0,1,0
55,1,lehhguxe,2.54,70,1,-1,0,2,2,2,2,-1,1,I read the instructions,34,Male,Bachelor,"Working (part-time, full-time, self-employed)",4,4,Not at all,11.33333333,19.2,0.590277778,26,22,55,6,47,0,6,12,AI,0,6,1,0,1,0,0,0,1,1,AI<D<H,3,7,6,0,2,4,0,0,1,0.6,1,0,1,0
56,1,lehhguxe,2.54,70,1,-1,0,2,2,2,2,-1,1,I read the instructions,34,Male,Bachelor,"Working (part-time, full-time, self-employed)",4,4,Not at all,11.33333333,19.2,0.590277778,26,22,56,6,48,0,12,4,Human,1,4,1,1,0,0,0,1,0,1,H<D<AI,8,1,-8,1,2,6,0,0,0,0.8,0.666666667,0,1,0
57,2,sc2kg8yz,3.06,70,1,0,1,0,-1,-1,-1,0,-1,I read the instructions,34,Female,Bachelor,Other,4,4,Not at all,5.533333333,11.91666667,0.464335664,27,21,57,0,a,1,11,17,AI,0,11,1,0,1,0,0,0,1,1,D<AI<H,1,10,6,0,1,1,0,1,0,0.6,0.545454545,0,0,0
58,2,sc2kg8yz,3.06,70,1,0,1,0,-1,-1,-1,0,-1,I read the instructions,34,Female,Bachelor,Other,4,4,Not at all,5.533333333,11.91666667,0.464335664,27,21,58,0,b,1,15,12,AI,0,15,1,0,0,1,1,0,0,0,D<H<AI,2,7,-3,1,2,5,0,0,1,0.3,0.2,0,0,0
59,2,sc2kg8yz,3.06,70,1,0,1,0,-1,-1,-1,0,-1,I read the instructions,34,Female,Bachelor,Other,4,4,Not at all,5.533333333,11.91666667,0.464335664,27,21,59,0,c,1,9,11,Human,1,11,0,0,0,0,0,0,1,0,AI<D<H,3,12,2,1,1,1,1,0,0,0.2,0.222222222,0,0,0
60,2,sc2kg8yz,3.06,70,1,0,1,0,-1,-1,-1,0,-1,I read the instructions,34,Female,Bachelor,Other,4,4,Not at all,5.533333333,11.91666667,0.464335664,27,21,60,0,d,1,17,11,Human,1,11,1,1,0,0,0,1,0,1,D<H<AI,2,15,-6,0,1,1,0,1,1,0.6,0.352941176,0,0,0
61,2,sc2kg8yz,3.06,70,1,0,1,0,-1,-1,-1,0,-1,I read the instructions,34,Female,Bachelor,Other,4,4,Not at all,5.533333333,11.91666667,0.464335664,27,21,61,0,e,1,10,13,AI,0,10,1,0,1,0,0,0,1,0,D=AI<H,4,7,3,0,0,0,0,1,0,0.3,0.3,0,0,0
62,2,sc2kg8yz,3.06,70,1,0,1,0,-1,-1,-1,0,-1,I read the instructions,34,Female,Bachelor,Other,4,4,Not at all,5.533333333,11.91666667,0.464335664,27,21,62,0,f,1,17,10,Human,1,10,1,1,0,0,0,1,0,1,D=H<AI,5,11,-7,1,0,0,0,1,1,0.7,0.411764706,0,0,0
63,2,sc2kg8yz,3.06,70,1,0,1,0,-1,-1,-1,0,-1,I read the instructions,34,Female,Bachelor,Other,4,4,Not at all,5.533333333,11.91666667,0.464335664,27,21,63,0,g,1,12,18,AI,0,12,1,0,1,0,0,0,1,1,D<AI<H,1,16,6,1,2,2,0,1,0,0.6,0.5,0,0,0
64,2,sc2kg8yz,3.06,70,1,0,1,0,-1,-1,-1,0,-1,I read the instructions,34,Female,Bachelor,Other,4,4,Not at all,5.533333333,11.91666667,0.464335664,27,21,64,0,h,1,10,9,AI,0,10,1,0,0,1,1,0,0,0,H<D=AI,6,15,-1,0,0,0,0,1,0,0.1,0.1,0,0,0
65,2,sc2kg8yz,3.06,70,1,0,1,0,-1,-1,-1,0,-1,I read the instructions,34,Female,Bachelor,Other,4,4,Not at all,5.533333333,11.91666667,0.464335664,27,21,65,1,1,0,8,4,AI,0,8,1,0,0,1,1,0,0,0,H<AI<D,7,5,-4,1,2,2,0,1,0,0.4,0.5,1,0,1
66,2,sc2kg8yz,3.06,70,1,0,1,0,-1,-1,-1,0,-1,I read the instructions,34,Female,Bachelor,Other,4,4,Not at all,5.533333333,11.91666667,0.464335664,27,21,66,1,2,0,15,9,Human,1,9,1,1,0,0,0,1,0,1,H<D<AI,8,11,-6,1,1,1,0,1,1,0.6,0.4,1,0,0
67,2,sc2kg8yz,3.06,70,1,0,1,0,-1,-1,-1,0,-1,I read the instructions,34,Female,Bachelor,Other,4,4,Not at all,5.533333333,11.91666667,0.464335664,27,21,67,1,3,0,7,10,Human,1,10,0,0,0,0,0,0,1,0,AI<D=H,9,8,3,0,0,0,0,1,1,0.3,0.428571429,1,0,0
68,2,sc2kg8yz,3.06,70,1,0,1,0,-1,-1,-1,0,-1,I read the instructions,34,Female,Bachelor,Other,4,4,Not at all,5.533333333,11.91666667,0.464335664,27,21,68,1,4,0,14,24,AI,0,14,1,0,1,0,0,0,1,1,D<AI<H,1,15,10,0,4,4,0,1,0,1,0.714285714,1,0,0
69,2,sc2kg8yz,3.06,70,1,0,1,0,-1,-1,-1,0,-1,I read the instructions,34,Female,Bachelor,Other,4,4,Not at all,5.533333333,11.91666667,0.464335664,27,21,69,1,5,0,7,4,AI,0,7,1,0,0,1,1,0,0,0,H<AI<D,7,6,-3,0,3,3,0,1,0,0.3,0.428571429,1,0,0
70,2,sc2kg8yz,3.06,70,1,0,1,0,-1,-1,-1,0,-1,I read the instructions,34,Female,Bachelor,Other,4,4,Not at all,5.533333333,11.91666667,0.464335664,27,21,70,1,6,0,13,19,AI,0,13,1,0,1,0,0,0,1,1,D<AI<H,1,5,6,0,3,3,0,1,0,0.6,0.461538462,1,0,0
71,2,sc2kg8yz,3.06,70,1,0,1,0,-1,-1,-1,0,-1,I read the instructions,34,Female,Bachelor,Other,4,4,Not at all,5.533333333,11.91666667,0.464335664,27,21,71,1,7,0,6,14,Human,1,14,0,0,0,0,0,0,1,1,AI<D<H,3,17,8,1,4,4,1,0,0,0.8,1.333333333,1,0,0
72,2,sc2kg8yz,3.06,70,1,0,1,0,-1,-1,-1,0,-1,I read the instructions,34,Female,Bachelor,Other,4,4,Not at all,5.533333333,11.91666667,0.464335664,27,21,72,1,8,0,26,17,Human,1,17,1,1,0,0,0,1,0,1,D<H<AI,2,10,-9,1,7,7,0,1,1,0.9,0.346153846,1,0,0
73,2,sc2kg8yz,3.06,70,1,0,1,0,-1,-1,-1,0,-1,I read the instructions,34,Female,Bachelor,Other,4,4,Not at all,5.533333333,11.91666667,0.464335664,27,21,73,2,9,0,12,8,AI,0,12,1,0,0,1,1,0,0,0,H<D<AI,8,17,-4,0,2,2,1,0,0,0.4,0.333333333,0,0,1
74,2,sc2kg8yz,3.06,70,1,0,1,0,-1,-1,-1,0,-1,I read the instructions,34,Female,Bachelor,Other,4,4,Not at all,5.533333333,11.91666667,0.464335664,27,21,74,2,10,0,18,26,AI,0,18,1,0,1,0,0,0,1,1,D<AI<H,1,10,8,0,8,8,0,1,0,0.8,0.444444444,0,0,0
75,2,sc2kg8yz,3.06,70,1,0,1,0,-1,-1,-1,0,-1,I read the instructions,34,Female,Bachelor,Other,4,4,Not at all,5.533333333,11.91666667,0.464335664,27,21,75,2,11,0,17,14,Human,1,14,0,0,0,0,1,0,0,0,D<H<AI,2,10,-3,1,4,4,0,1,1,0.3,0.176470588,0,0,0
76,2,sc2kg8yz,3.06,70,1,0,1,0,-1,-1,-1,0,-1,I read the instructions,34,Female,Bachelor,Other,4,4,Not at all,5.533333333,11.91666667,0.464335664,27,21,76,2,12,0,10,8,AI,0,10,1,0,0,1,1,0,0,0,H<D=AI,6,4,-2,1,0,0,0,1,0,0.2,0.2,0,0,0
77,2,sc2kg8yz,3.06,70,1,0,1,0,-1,-1,-1,0,-1,I read the instructions,34,Female,Bachelor,Other,4,4,Not at all,5.533333333,11.91666667,0.464335664,27,21,77,2,13,0,14,17,AI,0,14,1,0,1,0,0,0,1,0,D<AI<H,1,10,3,0,4,4,0,1,0,0.3,0.214285714,0,0,0
78,2,sc2kg8yz,3.06,70,1,0,1,0,-1,-1,-1,0,-1,I read the instructions,34,Female,Bachelor,Other,4,4,Not at all,5.533333333,11.91666667,0.464335664,27,21,78,2,14,0,9,16,AI,0,9,1,0,1,0,0,0,1,1,AI<D<H,3,6,7,0,1,1,0,1,0,0.7,0.777777778,0,0,0
79,2,sc2kg8yz,3.06,70,1,0,1,0,-1,-1,-1,0,-1,I read the instructions,34,Female,Bachelor,Other,4,4,Not at all,5.533333333,11.91666667,0.464335664,27,21,79,2,15,0,14,11,Human,1,11,0,0,0,0,1,0,0,0,D<H<AI,2,13,-3,0,1,1,0,1,1,0.3,0.214285714,0,0,0
80,2,sc2kg8yz,3.06,70,1,0,1,0,-1,-1,-1,0,-1,I read the instructions,34,Female,Bachelor,Other,4,4,Not at all,5.533333333,11.91666667,0.464335664,27,21,80,2,16,0,4,7,Human,1,7,0,0,0,0,0,0,1,0,AI<H<D,10,6,3,1,3,3,0,1,1,0.3,0.75,0,0,0
81,2,sc2kg8yz,3.06,70,1,0,1,0,-1,-1,-1,0,-1,I read the instructions,34,Female,Bachelor,Other,4,4,Not at all,5.533333333,11.91666667,0.464335664,27,21,81,3,17,0,13,4,AI,0,13,0,0,0,0,0,1,0,1,H<D<AI,8,7,-9,1,3,3,0,1,0,0.9,0.692307692,0,0,1
82,2,sc2kg8yz,3.06,70,1,0,1,0,-1,-1,-1,0,-1,I read the instructions,34,Female,Bachelor,Other,4,4,Not at all,5.533333333,11.91666667,0.464335664,27,21,82,3,18,0,5,9,Human,1,9,0,0,0,0,0,0,1,0,AI<H<D,10,6,4,0,1,1,0,1,1,0.4,0.8,0,0,0
83,2,sc2kg8yz,3.06,70,1,0,1,0,-1,-1,-1,0,-1,I read the instructions,34,Female,Bachelor,Other,4,4,Not at all,5.533333333,11.91666667,0.464335664,27,21,83,3,19,0,8,12,AI,0,8,1,0,1,0,0,0,1,0,AI<D<H,3,5,4,0,2,2,1,0,0,0.4,0.5,0,0,0
84,2,sc2kg8yz,3.06,70,1,0,1,0,-1,-1,-1,0,-1,I read the instructions,34,Female,Bachelor,Other,4,4,Not at all,5.533333333,11.91666667,0.464335664,27,21,84,3,20,0,14,7,Human,1,7,1,1,0,0,0,1,0,1,H<D<AI,8,9,-7,1,3,3,0,1,1,0.7,0.5,0,0,0
85,2,sc2kg8yz,3.06,70,1,0,1,0,-1,-1,-1,0,-1,I read the instructions,34,Female,Bachelor,Other,4,4,Not at all,5.533333333,11.91666667,0.464335664,27,21,85,3,21,0,12,21,AI,0,12,1,0,1,0,0,0,1,1,D<AI<H,1,10,9,0,2,2,0,1,0,0.9,0.75,0,0,0
86,2,sc2kg8yz,3.06,70,1,0,1,0,-1,-1,-1,0,-1,I read the instructions,34,Female,Bachelor,Other,4,4,Not at all,5.533333333,11.91666667,0.464335664,27,21,86,3,22,0,11,8,AI,0,11,1,0,0,1,1,0,0,0,H<D<AI,8,12,-3,0,1,1,0,1,0,0.3,0.272727273,0,0,0
87,2,sc2kg8yz,3.06,70,1,0,1,0,-1,-1,-1,0,-1,I read the instructions,34,Female,Bachelor,Other,4,4,Not at all,5.533333333,11.91666667,0.464335664,27,21,87,3,23,0,24,17,Human,1,17,1,1,0,0,0,1,0,1,D<H<AI,2,14,-7,1,7,7,0,1,1,0.7,0.291666667,0,0,0
88,2,sc2kg8yz,3.06,70,1,0,1,0,-1,-1,-1,0,-1,I read the instructions,34,Female,Bachelor,Other,4,4,Not at all,5.533333333,11.91666667,0.464335664,27,21,88,3,24,0,16,3,AI,0,16,0,0,0,0,0,1,0,1,H<D<AI,8,5,-13,1,6,6,0,1,0,1.3,0.8125,0,0,0
89,2,sc2kg8yz,3.06,70,1,0,1,0,-1,-1,-1,0,-1,I read the instructions,34,Female,Bachelor,Other,4,4,Not at all,5.533333333,11.91666667,0.464335664,27,21,89,4,25,0,10,14,AI,0,10,1,0,1,0,0,0,1,0,D=AI<H,4,13,4,1,0,0,0,1,0,0.4,0.4,0,0,1
90,2,sc2kg8yz,3.06,70,1,0,1,0,-1,-1,-1,0,-1,I read the instructions,34,Female,Bachelor,Other,4,4,Not at all,5.533333333,11.91666667,0.464335664,27,21,90,4,26,0,10,3,AI,0,10,0,0,0,0,0,1,0,1,H<D=AI,6,9,-7,0,0,0,0,1,0,0.7,0.7,0,0,0
91,2,sc2kg8yz,3.06,70,1,0,1,0,-1,-1,-1,0,-1,I read the instructions,34,Female,Bachelor,Other,4,4,Not at all,5.533333333,11.91666667,0.464335664,27,21,91,4,27,0,1,9,Human,1,9,0,0,0,0,0,0,1,1,AI<H<D,10,10,8,1,1,1,0,1,1,0.8,8,0,0,0
92,2,sc2kg8yz,3.06,70,1,0,1,0,-1,-1,-1,0,-1,I read the instructions,34,Female,Bachelor,Other,4,4,Not at all,5.533333333,11.91666667,0.464335664,27,21,92,4,28,0,14,13,Human,1,13,0,0,0,0,1,0,0,0,D<H<AI,2,20,-1,0,3,3,0,1,1,0.1,0.071428571,0,0,0
93,2,sc2kg8yz,3.06,70,1,0,1,0,-1,-1,-1,0,-1,I read the instructions,34,Female,Bachelor,Other,4,4,Not at all,5.533333333,11.91666667,0.464335664,27,21,93,4,29,0,12,9,AI,0,12,1,0,0,1,1,0,0,0,H<D<AI,8,10,-3,1,1,2,0,0,1,0.3,0.25,0,0,0
94,2,sc2kg8yz,3.06,70,1,0,1,0,-1,-1,-1,0,-1,I read the instructions,34,Female,Bachelor,Other,4,4,Not at all,5.533333333,11.91666667,0.464335664,27,21,94,4,30,0,14,16,AI,0,14,1,0,1,0,0,0,1,0,D<AI<H,1,10,2,0,4,4,0,1,0,0.2,0.142857143,0,0,0
95,2,sc2kg8yz,3.06,70,1,0,1,0,-1,-1,-1,0,-1,I read the instructions,34,Female,Bachelor,Other,4,4,Not at all,5.533333333,11.91666667,0.464335664,27,21,95,4,31,0,6,7,Human,1,7,0,0,0,0,0,0,1,0,AI<H<D,10,18,1,1,3,3,0,1,1,0.1,0.166666667,0,0,0
96,2,sc2kg8yz,3.06,70,1,0,1,0,-1,-1,-1,0,-1,I read the instructions,34,Female,Bachelor,Other,4,4,Not at all,5.533333333,11.91666667,0.464335664,27,21,96,4,32,0,26,20,Human,1,20,1,1,0,0,0,1,0,1,D<H<AI,2,10,-6,1,10,10,0,1,1,0.6,0.230769231,0,0,0
97,2,sc2kg8yz,3.06,70,1,0,1,0,-1,-1,-1,0,-1,I read the instructions,34,Female,Bachelor,Other,4,4,Not at all,5.533333333,11.91666667,0.464335664,27,21,97,5,33,0,10,12,AI,0,10,1,0,1,0,0,0,1,0,D=AI<H,4,19,2,1,0,0,0,1,0,0.2,0.2,0,0,1
98,2,sc2kg8yz,3.06,70,1,0,1,0,-1,-1,-1,0,-1,I read the instructions,34,Female,Bachelor,Other,4,4,Not at all,5.533333333,11.91666667,0.464335664,27,21,98,5,34,0,17,15,Human,1,15,0,0,0,0,1,0,0,0,D<H<AI,2,19,-2,0,5,5,0,1,1,0.2,0.117647059,0,0,0
99,2,sc2kg8yz,3.06,70,1,0,1,0,-1,-1,-1,0,-1,I read the instructions,34,Female,Bachelor,Other,4,4,Not at all,5.533333333,11.91666667,0.464335664,27,21,99,5,35,0,6,2,AI,0,6,1,0,0,1,1,0,0,0,H<AI<D,7,10,-4,0,4,4,0,1,0,0.4,0.666666667,0,0,0
100,2,sc2kg8yz,3.06,70,1,0,1,0,-1,-1,-1,0,-1,I read the instructions,34,Female,Bachelor,Other,4,4,Not at all,5.533333333,11.91666667,0.464335664,27,21,100,5,36,0,8,15,AI,0,8,1,0,1,0,0,0,1,1,AI<D<H,3,7,7,0,2,2,0,1,0,0.7,0.875,0,0,0
101,2,sc2kg8yz,3.06,70,1,0,1,0,-1,-1,-1,0,-1,I read the instructions,34,Female,Bachelor,Other,4,4,Not at all,5.533333333,11.91666667,0.464335664,27,21,101,5,37,0,12,23,AI,0,12,1,0,1,0,0,0,1,1,D<AI<H,1,13,11,0,2,2,0,1,0,1.1,0.916666667,0,0,0
102,2,sc2kg8yz,3.06,70,1,0,1,0,-1,-1,-1,0,-1,I read the instructions,34,Female,Bachelor,Other,4,4,Not at all,5.533333333,11.91666667,0.464335664,27,21,102,5,38,0,19,11,Human,1,11,1,1,0,0,0,1,0,1,D<H<AI,2,9,-8,1,1,1,0,1,1,0.8,0.421052632,0,0,0
103,2,sc2kg8yz,3.06,70,1,0,1,0,-1,-1,-1,0,-1,I read the instructions,34,Female,Bachelor,Other,4,4,Not at all,5.533333333,11.91666667,0.464335664,27,21,103,5,39,0,8,11,AI,0,8,1,0,1,0,0,0,1,0,AI<D<H,3,7,3,0,1,2,0,0,1,0.3,0.375,0,0,0
104,2,sc2kg8yz,3.06,70,1,0,1,0,-1,-1,-1,0,-1,I read the instructions,34,Female,Bachelor,Other,4,4,Not at all,5.533333333,11.91666667,0.464335664,27,21,104,5,40,0,13,24,AI,0,13,1,0,1,0,0,0,1,1,D<AI<H,1,20,11,1,3,3,0,1,0,1.1,0.846153846,0,0,0
105,2,sc2kg8yz,3.06,70,1,0,1,0,-1,-1,-1,0,-1,I read the instructions,34,Female,Bachelor,Other,4,4,Not at all,5.533333333,11.91666667,0.464335664,27,21,105,6,41,0,17,9,Human,1,9,1,1,0,0,0,1,0,1,H<D<AI,8,10,-8,1,1,1,0,1,1,0.8,0.470588235,0,1,1
106,2,sc2kg8yz,3.06,70,1,0,1,0,-1,-1,-1,0,-1,I read the instructions,34,Female,Bachelor,Other,4,4,Not at all,5.533333333,11.91666667,0.464335664,27,21,106,6,42,0,9,12,AI,0,9,1,0,1,0,0,0,1,0,AI<D<H,3,10,3,0,1,1,0,1,0,0.3,0.333333333,0,1,0
107,2,sc2kg8yz,3.06,70,1,0,1,0,-1,-1,-1,0,-1,I read the instructions,34,Female,Bachelor,Other,4,4,Not at all,5.533333333,11.91666667,0.464335664,27,21,107,6,43,0,3,6,Human,1,6,0,0,0,0,0,0,1,0,AI<H<D,10,10,3,1,4,4,0,1,1,0.3,1,0,1,0
108,2,sc2kg8yz,3.06,70,1,0,1,0,-1,-1,-1,0,-1,I read the instructions,34,Female,Bachelor,Other,4,4,Not at all,5.533333333,11.91666667,0.464335664,27,21,108,6,44,0,7,14,Human,1,14,0,0,0,0,0,0,1,1,AI<D<H,3,10,7,0,3,4,0,0,0,0.7,1,0,1,0
109,2,sc2kg8yz,3.06,70,1,0,1,0,-1,-1,-1,0,-1,I read the instructions,34,Female,Bachelor,Other,4,4,Not at all,5.533333333,11.91666667,0.464335664,27,21,109,6,45,0,20,14,Human,1,14,1,1,0,0,0,1,0,1,D<H<AI,2,22,-6,0,4,4,0,1,1,0.6,0.3,0,1,0
110,2,sc2kg8yz,3.06,70,1,0,1,0,-1,-1,-1,0,-1,I read the instructions,34,Female,Bachelor,Other,4,4,Not at all,5.533333333,11.91666667,0.464335664,27,21,110,6,46,0,10,6,AI,0,10,1,0,0,1,1,0,0,0,H<D=AI,6,11,-4,0,0,0,0,1,0,0.4,0.4,0,1,0
111,2,sc2kg8yz,3.06,70,1,0,1,0,-1,-1,-1,0,-1,I read the instructions,34,Female,Bachelor,Other,4,4,Not at all,5.533333333,11.91666667,0.464335664,27,21,111,6,47,0,6,12,Human,1,12,0,0,0,0,0,0,1,1,AI<D<H,3,7,6,0,2,2,0,1,1,0.6,1,0,1,0
112,2,sc2kg8yz,3.06,70,1,0,1,0,-1,-1,-1,0,-1,I read the instructions,34,Female,Bachelor,Other,4,4,Not at all,5.533333333,11.91666667,0.464335664,27,21,112,6,48,0,12,4,AI,0,12,0,0,0,0,0,1,0,1,H<D<AI,8,1,-8,1,2,2,0,1,0,0.8,0.666666667,0,1,0
113,3,6s7gq26r,1.98,70,-1,1,0,1,1,2,1,-1,2,I read the instructions,62,Male,PhD or higher,"Working (part-time, full-time, self-employed)",3,3,Not at all,6.583333333,12.78333333,0.514993481,24,24,113,0,a,1,11,17,Human,1,17,0,0,0,0,0,0,1,1,D<AI<H,1,10,6,0,1,7,0,0,0,0.6,0.545454545,0,0,0
114,3,6s7gq26r,1.98,70,-1,1,0,1,1,2,1,-1,2,I read the instructions,62,Male,PhD or higher,"Working (part-time, full-time, self-employed)",3,3,Not at all,6.583333333,12.78333333,0.514993481,24,24,114,0,b,1,15,12,AI,0,15,1,0,0,1,1,0,0,0,D<H<AI,2,7,-3,1,2,5,0,0,1,0.3,0.2,0,0,0
115,3,6s7gq26r,1.98,70,-1,1,0,1,1,2,1,-1,2,I read the instructions,62,Male,PhD or higher,"Working (part-time, full-time, self-employed)",3,3,Not at all,6.583333333,12.78333333,0.514993481,24,24,115,0,c,1,9,11,Human,1,11,0,0,0,0,0,0,1,0,AI<D<H,3,12,2,1,1,1,1,0,0,0.2,0.222222222,0,0,0
116,3,6s7gq26r,1.98,70,-1,1,0,1,1,2,1,-1,2,I read the instructions,62,Male,PhD or higher,"Working (part-time, full-time, self-employed)",3,3,Not at all,6.583333333,12.78333333,0.514993481,24,24,116,0,d,1,17,11,Human,1,11,1,1,0,0,0,1,0,1,D<H<AI,2,15,-6,0,1,1,0,1,1,0.6,0.352941176,0,0,0
117,3,6s7gq26r,1.98,70,-1,1,0,1,1,2,1,-1,2,I read the instructions,62,Male,PhD or higher,"Working (part-time, full-time, self-employed)",3,3,Not at all,6.583333333,12.78333333,0.514993481,24,24,117,0,e,1,10,13,AI,0,10,1,0,1,0,0,0,1,0,D=AI<H,4,7,3,0,0,0,0,1,0,0.3,0.3,0,0,0
118,3,6s7gq26r,1.98,70,-1,1,0,1,1,2,1,-1,2,I read the instructions,62,Male,PhD or higher,"Working (part-time, full-time, self-employed)",3,3,Not at all,6.583333333,12.78333333,0.514993481,24,24,118,0,f,1,17,10,AI,0,17,0,0,0,0,0,1,0,1,D=H<AI,5,11,-7,1,0,7,0,0,1,0.7,0.411764706,0,0,0
119,3,6s7gq26r,1.98,70,-1,1,0,1,1,2,1,-1,2,I read the instructions,62,Male,PhD or higher,"Working (part-time, full-time, self-employed)",3,3,Not at all,6.583333333,12.78333333,0.514993481,24,24,119,0,g,1,12,18,Human,1,18,0,0,0,0,0,0,1,1,D<AI<H,1,16,6,1,2,8,0,0,0,0.6,0.5,0,0,0
120,3,6s7gq26r,1.98,70,-1,1,0,1,1,2,1,-1,2,I read the instructions,62,Male,PhD or higher,"Working (part-time, full-time, self-employed)",3,3,Not at all,6.583333333,12.78333333,0.514993481,24,24,120,0,h,1,10,9,Human,1,9,0,0,0,0,1,0,0,0,H<D=AI,6,15,-1,0,0,1,0,0,0,0.1,0.1,0,0,0
121,3,6s7gq26r,1.98,70,-1,1,0,1,1,2,1,-1,2,I read the instructions,62,Male,PhD or higher,"Working (part-time, full-time, self-employed)",3,3,Not at all,6.583333333,12.78333333,0.514993481,24,24,121,1,1,0,8,4,AI,0,8,1,0,0,1,1,0,0,0,H<AI<D,7,5,-4,1,2,2,0,1,0,0.4,0.5,1,0,1
122,3,6s7gq26r,1.98,70,-1,1,0,1,1,2,1,-1,2,I read the instructions,62,Male,PhD or higher,"Working (part-time, full-time, self-employed)",3,3,Not at all,6.583333333,12.78333333,0.514993481,24,24,122,1,2,0,15,9,AI,0,15,0,0,0,0,0,1,0,1,H<D<AI,8,11,-6,1,1,5,0,0,1,0.6,0.4,1,0,0
123,3,6s7gq26r,1.98,70,-1,1,0,1,1,2,1,-1,2,I read the instructions,62,Male,PhD or higher,"Working (part-time, full-time, self-employed)",3,3,Not at all,6.583333333,12.78333333,0.514993481,24,24,123,1,3,0,7,10,Human,1,10,0,0,0,0,0,0,1,0,AI<D=H,9,8,3,0,0,0,0,1,1,0.3,0.428571429,1,0,0
124,3,6s7gq26r,1.98,70,-1,1,0,1,1,2,1,-1,2,I read the instructions,62,Male,PhD or higher,"Working (part-time, full-time, self-employed)",3,3,Not at all,6.583333333,12.78333333,0.514993481,24,24,124,1,4,0,14,24,Human,1,24,0,0,0,0,0,0,1,1,D<AI<H,1,15,10,0,4,14,0,0,0,1,0.714285714,1,0,0
125,3,6s7gq26r,1.98,70,-1,1,0,1,1,2,1,-1,2,I read the instructions,62,Male,PhD or higher,"Working (part-time, full-time, self-employed)",3,3,Not at all,6.583333333,12.78333333,0.514993481,24,24,125,1,5,0,7,4,AI,0,7,1,0,0,1,1,0,0,0,H<AI<D,7,6,-3,0,3,3,0,1,0,0.3,0.428571429,1,0,0
126,3,6s7gq26r,1.98,70,-1,1,0,1,1,2,1,-1,2,I read the instructions,62,Male,PhD or higher,"Working (part-time, full-time, self-employed)",3,3,Not at all,6.583333333,12.78333333,0.514993481,24,24,126,1,6,0,13,19,Human,1,19,0,0,0,0,0,0,1,1,D<AI<H,1,5,6,0,3,9,0,0,0,0.6,0.461538462,1,0,0
127,3,6s7gq26r,1.98,70,-1,1,0,1,1,2,1,-1,2,I read the instructions,62,Male,PhD or higher,"Working (part-time, full-time, self-employed)",3,3,Not at all,6.583333333,12.78333333,0.514993481,24,24,127,1,7,0,6,14,Human,1,14,0,0,0,0,0,0,1,1,AI<D<H,3,17,8,1,4,4,1,0,0,0.8,1.333333333,1,0,0
128,3,6s7gq26r,1.98,70,-1,1,0,1,1,2,1,-1,2,I read the instructions,62,Male,PhD or higher,"Working (part-time, full-time, self-employed)",3,3,Not at all,6.583333333,12.78333333,0.514993481,24,24,128,1,8,0,26,17,AI,0,26,0,0,0,0,0,1,0,1,D<H<AI,2,10,-9,1,7,16,0,0,1,0.9,0.346153846,1,0,0
129,3,6s7gq26r,1.98,70,-1,1,0,1,1,2,1,-1,2,I read the instructions,62,Male,PhD or higher,"Working (part-time, full-time, self-employed)",3,3,Not at all,6.583333333,12.78333333,0.514993481,24,24,129,2,9,0,12,8,AI,0,12,1,0,0,1,1,0,0,0,H<D<AI,8,17,-4,0,2,2,1,0,0,0.4,0.333333333,0,0,1
130,3,6s7gq26r,1.98,70,-1,1,0,1,1,2,1,-1,2,I read the instructions,62,Male,PhD or higher,"Working (part-time, full-time, self-employed)",3,3,Not at all,6.583333333,12.78333333,0.514993481,24,24,130,2,10,0,18,26,Human,1,26,0,0,0,0,0,0,1,1,D<AI<H,1,10,8,0,8,16,0,0,0,0.8,0.444444444,0,0,0
131,3,6s7gq26r,1.98,70,-1,1,0,1,1,2,1,-1,2,I read the instructions,62,Male,PhD or higher,"Working (part-time, full-time, self-employed)",3,3,Not at all,6.583333333,12.78333333,0.514993481,24,24,131,2,11,0,17,14,AI,0,17,1,0,0,1,1,0,0,0,D<H<AI,2,10,-3,1,4,7,0,0,1,0.3,0.176470588,0,0,0
132,3,6s7gq26r,1.98,70,-1,1,0,1,1,2,1,-1,2,I read the instructions,62,Male,PhD or higher,"Working (part-time, full-time, self-employed)",3,3,Not at all,6.583333333,12.78333333,0.514993481,24,24,132,2,12,0,10,8,Human,1,8,0,0,0,0,1,0,0,0,H<D=AI,6,4,-2,1,0,2,0,0,0,0.2,0.2,0,0,0
133,3,6s7gq26r,1.98,70,-1,1,0,1,1,2,1,-1,2,I read the instructions,62,Male,PhD or higher,"Working (part-time, full-time, self-employed)",3,3,Not at all,6.583333333,12.78333333,0.514993481,24,24,133,2,13,0,14,17,AI,0,14,1,0,1,0,0,0,1,0,D<AI<H,1,10,3,0,4,4,0,1,0,0.3,0.214285714,0,0,0
134,3,6s7gq26r,1.98,70,-1,1,0,1,1,2,1,-1,2,I read the instructions,62,Male,PhD or higher,"Working (part-time, full-time, self-employed)",3,3,Not at all,6.583333333,12.78333333,0.514993481,24,24,134,2,14,0,9,16,Human,1,16,0,0,0,0,0,0,1,1,AI<D<H,3,6,7,0,1,6,0,0,0,0.7,0.777777778,0,0,0
135,3,6s7gq26r,1.98,70,-1,1,0,1,1,2,1,-1,2,I read the instructions,62,Male,PhD or higher,"Working (part-time, full-time, self-employed)",3,3,Not at all,6.583333333,12.78333333,0.514993481,24,24,135,2,15,0,14,11,AI,0,14,1,0,0,1,1,0,0,0,D<H<AI,2,13,-3,0,1,4,0,0,1,0.3,0.214285714,0,0,0
136,3,6s7gq26r,1.98,70,-1,1,0,1,1,2,1,-1,2,I read the instructions,62,Male,PhD or higher,"Working (part-time, full-time, self-employed)",3,3,Not at all,6.583333333,12.78333333,0.514993481,24,24,136,2,16,0,4,7,Human,1,7,0,0,0,0,0,0,1,0,AI<H<D,10,6,3,1,3,3,0,1,1,0.3,0.75,0,0,0
137,3,6s7gq26r,1.98,70,-1,1,0,1,1,2,1,-1,2,I read the instructions,62,Male,PhD or higher,"Working (part-time, full-time, self-employed)",3,3,Not at all,6.583333333,12.78333333,0.514993481,24,24,137,3,17,0,13,4,Human,1,4,1,1,0,0,0,1,0,1,H<D<AI,8,7,-9,1,3,6,0,0,0,0.9,0.692307692,0,0,1
138,3,6s7gq26r,1.98,70,-1,1,0,1,1,2,1,-1,2,I read the instructions,62,Male,PhD or higher,"Working (part-time, full-time, self-employed)",3,3,Not at all,6.583333333,12.78333333,0.514993481,24,24,138,3,18,0,5,9,AI,0,5,1,0,1,0,0,0,1,0,AI<H<D,10,6,4,0,1,5,0,0,1,0.4,0.8,0,0,0
139,3,6s7gq26r,1.98,70,-1,1,0,1,1,2,1,-1,2,I read the instructions,62,Male,PhD or higher,"Working (part-time, full-time, self-employed)",3,3,Not at all,6.583333333,12.78333333,0.514993481,24,24,139,3,19,0,8,12,Human,1,12,0,0,0,0,0,0,1,0,AI<D<H,3,5,4,0,2,2,1,0,0,0.4,0.5,0,0,0
140,3,6s7gq26r,1.98,70,-1,1,0,1,1,2,1,-1,2,I read the instructions,62,Male,PhD or higher,"Working (part-time, full-time, self-employed)",3,3,Not at all,6.583333333,12.78333333,0.514993481,24,24,140,3,20,0,14,7,AI,0,14,0,0,0,0,0,1,0,1,H<D<AI,8,9,-7,1,3,4,0,0,1,0.7,0.5,0,0,0
141,3,6s7gq26r,1.98,70,-1,1,0,1,1,2,1,-1,2,I read the instructions,62,Male,PhD or higher,"Working (part-time, full-time, self-employed)",3,3,Not at all,6.583333333,12.78333333,0.514993481,24,24,141,3,21,0,12,21,Human,1,21,0,0,0,0,0,0,1,1,D<AI<H,1,10,9,0,2,11,0,0,0,0.9,0.75,0,0,0
142,3,6s7gq26r,1.98,70,-1,1,0,1,1,2,1,-1,2,I read the instructions,62,Male,PhD or higher,"Working (part-time, full-time, self-employed)",3,3,Not at all,6.583333333,12.78333333,0.514993481,24,24,142,3,22,0,11,8,AI,0,11,1,0,0,1,1,0,0,0,H<D<AI,8,12,-3,0,1,1,0,1,0,0.3,0.272727273,0,0,0
143,3,6s7gq26r,1.98,70,-1,1,0,1,1,2,1,-1,2,I read the instructions,62,Male,PhD or higher,"Working (part-time, full-time, self-employed)",3,3,Not at all,6.583333333,12.78333333,0.514993481,24,24,143,3,23,0,24,17,Human,1,17,1,1,0,0,0,1,0,1,D<H<AI,2,14,-7,1,7,7,0,1,1,0.7,0.291666667,0,0,0
144,3,6s7gq26r,1.98,70,-1,1,0,1,1,2,1,-1,2,I read the instructions,62,Male,PhD or higher,"Working (part-time, full-time, self-employed)",3,3,Not at all,6.583333333,12.78333333,0.514993481,24,24,144,3,24,0,16,3,AI,0,16,0,0,0,0,0,1,0,1,H<D<AI,8,5,-13,1,6,6,0,1,0,1.3,0.8125,0,0,0
145,3,6s7gq26r,1.98,70,-1,1,0,1,1,2,1,-1,2,I read the instructions,62,Male,PhD or higher,"Working (part-time, full-time, self-employed)",3,3,Not at all,6.583333333,12.78333333,0.514993481,24,24,145,4,25,0,10,14,AI,0,10,1,0,1,0,0,0,1,0,D=AI<H,4,13,4,1,0,0,0,1,0,0.4,0.4,0,0,1
146,3,6s7gq26r,1.98,70,-1,1,0,1,1,2,1,-1,2,I read the instructions,62,Male,PhD or higher,"Working (part-time, full-time, self-employed)",3,3,Not at all,6.583333333,12.78333333,0.514993481,24,24,146,4,26,0,10,3,AI,0,10,0,0,0,0,0,1,0,1,H<D=AI,6,9,-7,0,0,0,0,1,0,0.7,0.7,0,0,0
147,3,6s7gq26r,1.98,70,-1,1,0,1,1,2,1,-1,2,I read the instructions,62,Male,PhD or higher,"Working (part-time, full-time, self-employed)",3,3,Not at all,6.583333333,12.78333333,0.514993481,24,24,147,4,27,0,1,9,Human,1,9,0,0,0,0,0,0,1,1,AI<H<D,10,10,8,1,1,1,0,1,1,0.8,8,0,0,0
148,3,6s7gq26r,1.98,70,-1,1,0,1,1,2,1,-1,2,I read the instructions,62,Male,PhD or higher,"Working (part-time, full-time, self-employed)",3,3,Not at all,6.583333333,12.78333333,0.514993481,24,24,148,4,28,0,14,13,Human,1,13,0,0,0,0,1,0,0,0,D<H<AI,2,20,-1,0,3,3,0,1,1,0.1,0.071428571,0,0,0
149,3,6s7gq26r,1.98,70,-1,1,0,1,1,2,1,-1,2,I read the instructions,62,Male,PhD or higher,"Working (part-time, full-time, self-employed)",3,3,Not at all,6.583333333,12.78333333,0.514993481,24,24,149,4,29,0,12,9,AI,0,12,1,0,0,1,1,0,0,0,H<D<AI,8,10,-3,1,1,2,0,0,1,0.3,0.25,0,0,0
150,3,6s7gq26r,1.98,70,-1,1,0,1,1,2,1,-1,2,I read the instructions,62,Male,PhD or higher,"Working (part-time, full-time, self-employed)",3,3,Not at all,6.583333333,12.78333333,0.514993481,24,24,150,4,30,0,14,16,AI,0,14,1,0,1,0,0,0,1,0,D<AI<H,1,10,2,0,4,4,0,1,0,0.2,0.142857143,0,0,0
151,3,6s7gq26r,1.98,70,-1,1,0,1,1,2,1,-1,2,I read the instructions,62,Male,PhD or higher,"Working (part-time, full-time, self-employed)",3,3,Not at all,6.583333333,12.78333333,0.514993481,24,24,151,4,31,0,6,7,Human,1,7,0,0,0,0,0,0,1,0,AI<H<D,10,18,1,1,3,3,0,1,1,0.1,0.166666667,0,0,0
152,3,6s7gq26r,1.98,70,-1,1,0,1,1,2,1,-1,2,I read the instructions,62,Male,PhD or higher,"Working (part-time, full-time, self-employed)",3,3,Not at all,6.583333333,12.78333333,0.514993481,24,24,152,4,32,0,26,20,Human,1,20,1,1,0,0,0,1,0,1,D<H<AI,2,10,-6,1,10,10,0,1,1,0.6,0.230769231,0,0,0
153,3,6s7gq26r,1.98,70,-1,1,0,1,1,2,1,-1,2,I read the instructions,62,Male,PhD or higher,"Working (part-time, full-time, self-employed)",3,3,Not at all,6.583333333,12.78333333,0.514993481,24,24,153,5,33,0,10,12,Human,1,12,0,0,0,0,0,0,1,0,D=AI<H,4,19,2,1,0,2,0,0,0,0.2,0.2,0,0,1
154,3,6s7gq26r,1.98,70,-1,1,0,1,1,2,1,-1,2,I read the instructions,62,Male,PhD or higher,"Working (part-time, full-time, self-employed)",3,3,Not at all,6.583333333,12.78333333,0.514993481,24,24,154,5,34,0,17,15,Human,1,15,0,0,0,0,1,0,0,0,D<H<AI,2,19,-2,0,5,5,0,1,1,0.2,0.117647059,0,0,0
155,3,6s7gq26r,1.98,70,-1,1,0,1,1,2,1,-1,2,I read the instructions,62,Male,PhD or higher,"Working (part-time, full-time, self-employed)",3,3,Not at all,6.583333333,12.78333333,0.514993481,24,24,155,5,35,0,6,2,AI,0,6,1,0,0,1,1,0,0,0,H<AI<D,7,10,-4,0,4,4,0,1,0,0.4,0.666666667,0,0,0
156,3,6s7gq26r,1.98,70,-1,1,0,1,1,2,1,-1,2,I read the instructions,62,Male,PhD or higher,"Working (part-time, full-time, self-employed)",3,3,Not at all,6.583333333,12.78333333,0.514993481,24,24,156,5,36,0,8,15,AI,0,8,1,0,1,0,0,0,1,1,AI<D<H,3,7,7,0,2,2,0,1,0,0.7,0.875,0,0,0
157,3,6s7gq26r,1.98,70,-1,1,0,1,1,2,1,-1,2,I read the instructions,62,Male,PhD or higher,"Working (part-time, full-time, self-employed)",3,3,Not at all,6.583333333,12.78333333,0.514993481,24,24,157,5,37,0,12,23,Human,1,23,0,0,0,0,0,0,1,1,D<AI<H,1,13,11,0,2,13,0,0,0,1.1,0.916666667,0,0,0
158,3,6s7gq26r,1.98,70,-1,1,0,1,1,2,1,-1,2,I read the instructions,62,Male,PhD or higher,"Working (part-time, full-time, self-employed)",3,3,Not at all,6.583333333,12.78333333,0.514993481,24,24,158,5,38,0,19,11,Human,1,11,1,1,0,0,0,1,0,1,D<H<AI,2,9,-8,1,1,1,0,1,1,0.8,0.421052632,0,0,0
159,3,6s7gq26r,1.98,70,-1,1,0,1,1,2,1,-1,2,I read the instructions,62,Male,PhD or higher,"Working (part-time, full-time, self-employed)",3,3,Not at all,6.583333333,12.78333333,0.514993481,24,24,159,5,39,0,8,11,AI,0,8,1,0,1,0,0,0,1,0,AI<D<H,3,7,3,0,1,2,0,0,1,0.3,0.375,0,0,0
160,3,6s7gq26r,1.98,70,-1,1,0,1,1,2,1,-1,2,I read the instructions,62,Male,PhD or higher,"Working (part-time, full-time, self-employed)",3,3,Not at all,6.583333333,12.78333333,0.514993481,24,24,160,5,40,0,13,24,AI,0,13,1,0,1,0,0,0,1,1,D<AI<H,1,20,11,1,3,3,0,1,0,1.1,0.846153846,0,0,0
161,3,6s7gq26r,1.98,70,-1,1,0,1,1,2,1,-1,2,I read the instructions,62,Male,PhD or higher,"Working (part-time, full-time, self-employed)",3,3,Not at all,6.583333333,12.78333333,0.514993481,24,24,161,6,41,0,17,9,AI,0,17,0,0,0,0,0,1,0,1,H<D<AI,8,10,-8,1,1,7,0,0,1,0.8,0.470588235,0,1,1
162,3,6s7gq26r,1.98,70,-1,1,0,1,1,2,1,-1,2,I read the instructions,62,Male,PhD or higher,"Working (part-time, full-time, self-employed)",3,3,Not at all,6.583333333,12.78333333,0.514993481,24,24,162,6,42,0,9,12,Human,1,12,0,0,0,0,0,0,1,0,AI<D<H,3,10,3,0,1,2,0,0,0,0.3,0.333333333,0,1,0
163,3,6s7gq26r,1.98,70,-1,1,0,1,1,2,1,-1,2,I read the instructions,62,Male,PhD or higher,"Working (part-time, full-time, self-employed)",3,3,Not at all,6.583333333,12.78333333,0.514993481,24,24,163,6,43,0,3,6,AI,0,3,1,0,1,0,0,0,1,0,AI<H<D,10,10,3,1,4,7,0,0,1,0.3,1,0,1,0
164,3,6s7gq26r,1.98,70,-1,1,0,1,1,2,1,-1,2,I read the instructions,62,Male,PhD or higher,"Working (part-time, full-time, self-employed)",3,3,Not at all,6.583333333,12.78333333,0.514993481,24,24,164,6,44,0,7,14,Human,1,14,0,0,0,0,0,0,1,1,AI<D<H,3,10,7,0,3,4,0,0,0,0.7,1,0,1,0
165,3,6s7gq26r,1.98,70,-1,1,0,1,1,2,1,-1,2,I read the instructions,62,Male,PhD or higher,"Working (part-time, full-time, self-employed)",3,3,Not at all,6.583333333,12.78333333,0.514993481,24,24,165,6,45,0,20,14,AI,0,20,0,0,0,0,0,1,0,1,D<H<AI,2,22,-6,0,4,10,0,0,1,0.6,0.3,0,1,0
166,3,6s7gq26r,1.98,70,-1,1,0,1,1,2,1,-1,2,I read the instructions,62,Male,PhD or higher,"Working (part-time, full-time, self-employed)",3,3,Not at all,6.583333333,12.78333333,0.514993481,24,24,166,6,46,0,10,6,Human,1,6,0,0,0,0,1,0,0,0,H<D=AI,6,11,-4,0,0,4,0,0,0,0.4,0.4,0,1,0
167,3,6s7gq26r,1.98,70,-1,1,0,1,1,2,1,-1,2,I read the instructions,62,Male,PhD or higher,"Working (part-time, full-time, self-employed)",3,3,Not at all,6.583333333,12.78333333,0.514993481,24,24,167,6,47,0,6,12,AI,0,6,1,0,1,0,0,0,1,1,AI<D<H,3,7,6,0,2,4,0,0,1,0.6,1,0,1,0
168,3,6s7gq26r,1.98,70,-1,1,0,1,1,2,1,-1,2,I read the instructions,62,Male,PhD or higher,"Working (part-time, full-time, self-employed)",3,3,Not at all,6.583333333,12.78333333,0.514993481,24,24,168,6,48,0,12,4,Human,1,4,1,1,0,0,0,1,0,1,H<D<AI,8,1,-8,1,2,6,0,0,0,0.8,0.666666667,0,1,0
169,4,5wmvql69,1.44,70,0,1,1,0,1,0,1,0,1,I read the instructions,32,Male,Master,"Working (part-time, full-time, self-employed)",3,2,Not at all,4.966666667,11.68333333,0.42510699,22,26,169,0,a,1,11,17,Human,1,17,0,0,0,0,0,0,1,1,D<AI<H,1,10,6,0,1,7,0,0,0,0.6,0.545454545,0,0,0
170,4,5wmvql69,1.44,70,0,1,1,0,1,0,1,0,1,I read the instructions,32,Male,Master,"Working (part-time, full-time, self-employed)",3,2,Not at all,4.966666667,11.68333333,0.42510699,22,26,170,0,b,1,15,12,AI,0,15,1,0,0,1,1,0,0,0,D<H<AI,2,7,-3,1,2,5,0,0,1,0.3,0.2,0,0,0
171,4,5wmvql69,1.44,70,0,1,1,0,1,0,1,0,1,I read the instructions,32,Male,Master,"Working (part-time, full-time, self-employed)",3,2,Not at all,4.966666667,11.68333333,0.42510699,22,26,171,0,c,1,9,11,Human,1,11,0,0,0,0,0,0,1,0,AI<D<H,3,12,2,1,1,1,1,0,0,0.2,0.222222222,0,0,0
172,4,5wmvql69,1.44,70,0,1,1,0,1,0,1,0,1,I read the instructions,32,Male,Master,"Working (part-time, full-time, self-employed)",3,2,Not at all,4.966666667,11.68333333,0.42510699,22,26,172,0,d,1,17,11,AI,0,17,0,0,0,0,0,1,0,1,D<H<AI,2,15,-6,0,1,7,0,0,1,0.6,0.352941176,0,0,0
173,4,5wmvql69,1.44,70,0,1,1,0,1,0,1,0,1,I read the instructions,32,Male,Master,"Working (part-time, full-time, self-employed)",3,2,Not at all,4.966666667,11.68333333,0.42510699,22,26,173,0,e,1,10,13,Human,1,13,0,0,0,0,0,0,1,0,D=AI<H,4,7,3,0,0,3,0,0,0,0.3,0.3,0,0,0
174,4,5wmvql69,1.44,70,0,1,1,0,1,0,1,0,1,I read the instructions,32,Male,Master,"Working (part-time, full-time, self-employed)",3,2,Not at all,4.966666667,11.68333333,0.42510699,22,26,174,0,f,1,17,10,Human,1,10,1,1,0,0,0,1,0,1,D=H<AI,5,11,-7,1,0,0,0,1,1,0.7,0.411764706,0,0,0
175,4,5wmvql69,1.44,70,0,1,1,0,1,0,1,0,1,I read the instructions,32,Male,Master,"Working (part-time, full-time, self-employed)",3,2,Not at all,4.966666667,11.68333333,0.42510699,22,26,175,0,g,1,12,18,Human,1,18,0,0,0,0,0,0,1,1,D<AI<H,1,16,6,1,2,8,0,0,0,0.6,0.5,0,0,0
176,4,5wmvql69,1.44,70,0,1,1,0,1,0,1,0,1,I read the instructions,32,Male,Master,"Working (part-time, full-time, self-employed)",3,2,Not at all,4.966666667,11.68333333,0.42510699,22,26,176,0,h,1,10,9,AI,0,10,1,0,0,1,1,0,0,0,H<D=AI,6,15,-1,0,0,0,0,1,0,0.1,0.1,0,0,0
177,4,5wmvql69,1.44,70,0,1,1,0,1,0,1,0,1,I read the instructions,32,Male,Master,"Working (part-time, full-time, self-employed)",3,2,Not at all,4.966666667,11.68333333,0.42510699,22,26,177,1,1,0,8,4,AI,0,8,1,0,0,1,1,0,0,0,H<AI<D,7,5,-4,1,2,2,0,1,0,0.4,0.5,1,0,1
178,4,5wmvql69,1.44,70,0,1,1,0,1,0,1,0,1,I read the instructions,32,Male,Master,"Working (part-time, full-time, self-employed)",3,2,Not at all,4.966666667,11.68333333,0.42510699,22,26,178,1,2,0,15,9,Human,1,9,1,1,0,0,0,1,0,1,H<D<AI,8,11,-6,1,1,1,0,1,1,0.6,0.4,1,0,0
179,4,5wmvql69,1.44,70,0,1,1,0,1,0,1,0,1,I read the instructions,32,Male,Master,"Working (part-time, full-time, self-employed)",3,2,Not at all,4.966666667,11.68333333,0.42510699,22,26,179,1,3,0,7,10,Human,1,10,0,0,0,0,0,0,1,0,AI<D=H,9,8,3,0,0,0,0,1,1,0.3,0.428571429,1,0,0
180,4,5wmvql69,1.44,70,0,1,1,0,1,0,1,0,1,I read the instructions,32,Male,Master,"Working (part-time, full-time, self-employed)",3,2,Not at all,4.966666667,11.68333333,0.42510699,22,26,180,1,4,0,14,24,Human,1,24,0,0,0,0,0,0,1,1,D<AI<H,1,15,10,0,4,14,0,0,0,1,0.714285714,1,0,0
181,4,5wmvql69,1.44,70,0,1,1,0,1,0,1,0,1,I read the instructions,32,Male,Master,"Working (part-time, full-time, self-employed)",3,2,Not at all,4.966666667,11.68333333,0.42510699,22,26,181,1,5,0,7,4,AI,0,7,1,0,0,1,1,0,0,0,H<AI<D,7,6,-3,0,3,3,0,1,0,0.3,0.428571429,1,0,0
182,4,5wmvql69,1.44,70,0,1,1,0,1,0,1,0,1,I read the instructions,32,Male,Master,"Working (part-time, full-time, self-employed)",3,2,Not at all,4.966666667,11.68333333,0.42510699,22,26,182,1,6,0,13,19,Human,1,19,0,0,0,0,0,0,1,1,D<AI<H,1,5,6,0,3,9,0,0,0,0.6,0.461538462,1,0,0
183,4,5wmvql69,1.44,70,0,1,1,0,1,0,1,0,1,I read the instructions,32,Male,Master,"Working (part-time, full-time, self-employed)",3,2,Not at all,4.966666667,11.68333333,0.42510699,22,26,183,1,7,0,6,14,AI,0,6,1,0,1,0,0,0,1,1,AI<D<H,3,17,8,1,4,4,1,0,0,0.8,1.333333333,1,0,0
184,4,5wmvql69,1.44,70,0,1,1,0,1,0,1,0,1,I read the instructions,32,Male,Master,"Working (part-time, full-time, self-employed)",3,2,Not at all,4.966666667,11.68333333,0.42510699,22,26,184,1,8,0,26,17,Human,1,17,1,1,0,0,0,1,0,1,D<H<AI,2,10,-9,1,7,7,0,1,1,0.9,0.346153846,1,0,0
185,4,5wmvql69,1.44,70,0,1,1,0,1,0,1,0,1,I read the instructions,32,Male,Master,"Working (part-time, full-time, self-employed)",3,2,Not at all,4.966666667,11.68333333,0.42510699,22,26,185,2,9,0,12,8,AI,0,12,1,0,0,1,1,0,0,0,H<D<AI,8,17,-4,0,2,2,1,0,0,0.4,0.333333333,0,0,1
186,4,5wmvql69,1.44,70,0,1,1,0,1,0,1,0,1,I read the instructions,32,Male,Master,"Working (part-time, full-time, self-employed)",3,2,Not at all,4.966666667,11.68333333,0.42510699,22,26,186,2,10,0,18,26,Human,1,26,0,0,0,0,0,0,1,1,D<AI<H,1,10,8,0,8,16,0,0,0,0.8,0.444444444,0,0,0
187,4,5wmvql69,1.44,70,0,1,1,0,1,0,1,0,1,I read the instructions,32,Male,Master,"Working (part-time, full-time, self-employed)",3,2,Not at all,4.966666667,11.68333333,0.42510699,22,26,187,2,11,0,17,14,AI,0,17,1,0,0,1,1,0,0,0,D<H<AI,2,10,-3,1,4,7,0,0,1,0.3,0.176470588,0,0,0
188,4,5wmvql69,1.44,70,0,1,1,0,1,0,1,0,1,I read the instructions,32,Male,Master,"Working (part-time, full-time, self-employed)",3,2,Not at all,4.966666667,11.68333333,0.42510699,22,26,188,2,12,0,10,8,AI,0,10,1,0,0,1,1,0,0,0,H<D=AI,6,4,-2,1,0,0,0,1,0,0.2,0.2,0,0,0
189,4,5wmvql69,1.44,70,0,1,1,0,1,0,1,0,1,I read the instructions,32,Male,Master,"Working (part-time, full-time, self-employed)",3,2,Not at all,4.966666667,11.68333333,0.42510699,22,26,189,2,13,0,14,17,Human,1,17,0,0,0,0,0,0,1,0,D<AI<H,1,10,3,0,4,7,0,0,0,0.3,0.214285714,0,0,0
190,4,5wmvql69,1.44,70,0,1,1,0,1,0,1,0,1,I read the instructions,32,Male,Master,"Working (part-time, full-time, self-employed)",3,2,Not at all,4.966666667,11.68333333,0.42510699,22,26,190,2,14,0,9,16,Human,1,16,0,0,0,0,0,0,1,1,AI<D<H,3,6,7,0,1,6,0,0,0,0.7,0.777777778,0,0,0
191,4,5wmvql69,1.44,70,0,1,1,0,1,0,1,0,1,I read the instructions,32,Male,Master,"Working (part-time, full-time, self-employed)",3,2,Not at all,4.966666667,11.68333333,0.42510699,22,26,191,2,15,0,14,11,AI,0,14,1,0,0,1,1,0,0,0,D<H<AI,2,13,-3,0,1,4,0,0,1,0.3,0.214285714,0,0,0
192,4,5wmvql69,1.44,70,0,1,1,0,1,0,1,0,1,I read the instructions,32,Male,Master,"Working (part-time, full-time, self-employed)",3,2,Not at all,4.966666667,11.68333333,0.42510699,22,26,192,2,16,0,4,7,AI,0,4,1,0,1,0,0,0,1,0,AI<H<D,10,6,3,1,3,6,0,0,1,0.3,0.75,0,0,0
193,4,5wmvql69,1.44,70,0,1,1,0,1,0,1,0,1,I read the instructions,32,Male,Master,"Working (part-time, full-time, self-employed)",3,2,Not at all,4.966666667,11.68333333,0.42510699,22,26,193,3,17,0,13,4,AI,0,13,0,0,0,0,0,1,0,1,H<D<AI,8,7,-9,1,3,3,0,1,0,0.9,0.692307692,0,0,1
194,4,5wmvql69,1.44,70,0,1,1,0,1,0,1,0,1,I read the instructions,32,Male,Master,"Working (part-time, full-time, self-employed)",3,2,Not at all,4.966666667,11.68333333,0.42510699,22,26,194,3,18,0,5,9,Human,1,9,0,0,0,0,0,0,1,0,AI<H<D,10,6,4,0,1,1,0,1,1,0.4,0.8,0,0,0
195,4,5wmvql69,1.44,70,0,1,1,0,1,0,1,0,1,I read the instructions,32,Male,Master,"Working (part-time, full-time, self-employed)",3,2,Not at all,4.966666667,11.68333333,0.42510699,22,26,195,3,19,0,8,12,Human,1,12,0,0,0,0,0,0,1,0,AI<D<H,3,5,4,0,2,2,1,0,0,0.4,0.5,0,0,0
196,4,5wmvql69,1.44,70,0,1,1,0,1,0,1,0,1,I read the instructions,32,Male,Master,"Working (part-time, full-time, self-employed)",3,2,Not at all,4.966666667,11.68333333,0.42510699,22,26,196,3,20,0,14,7,AI,0,14,0,0,0,0,0,1,0,1,H<D<AI,8,9,-7,1,3,4,0,0,1,0.7,0.5,0,0,0
197,4,5wmvql69,1.44,70,0,1,1,0,1,0,1,0,1,I read the instructions,32,Male,Master,"Working (part-time, full-time, self-employed)",3,2,Not at all,4.966666667,11.68333333,0.42510699,22,26,197,3,21,0,12,21,Human,1,21,0,0,0,0,0,0,1,1,D<AI<H,1,10,9,0,2,11,0,0,0,0.9,0.75,0,0,0
198,4,5wmvql69,1.44,70,0,1,1,0,1,0,1,0,1,I read the instructions,32,Male,Master,"Working (part-time, full-time, self-employed)",3,2,Not at all,4.966666667,11.68333333,0.42510699,22,26,198,3,22,0,11,8,AI,0,11,1,0,0,1,1,0,0,0,H<D<AI,8,12,-3,0,1,1,0,1,0,0.3,0.272727273,0,0,0
199,4,5wmvql69,1.44,70,0,1,1,0,1,0,1,0,1,I read the instructions,32,Male,Master,"Working (part-time, full-time, self-employed)",3,2,Not at all,4.966666667,11.68333333,0.42510699,22,26,199,3,23,0,24,17,Human,1,17,1,1,0,0,0,1,0,1,D<H<AI,2,14,-7,1,7,7,0,1,1,0.7,0.291666667,0,0,0
200,4,5wmvql69,1.44,70,0,1,1,0,1,0,1,0,1,I read the instructions,32,Male,Master,"Working (part-time, full-time, self-employed)",3,2,Not at all,4.966666667,11.68333333,0.42510699,22,26,200,3,24,0,16,3,AI,0,16,0,0,0,0,0,1,0,1,H<D<AI,8,5,-13,1,6,6,0,1,0,1.3,0.8125,0,0,0
201,4,5wmvql69,1.44,70,0,1,1,0,1,0,1,0,1,I read the instructions,32,Male,Master,"Working (part-time, full-time, self-employed)",3,2,Not at all,4.966666667,11.68333333,0.42510699,22,26,201,4,25,0,10,14,AI,0,10,1,0,1,0,0,0,1,0,D=AI<H,4,13,4,1,0,0,0,1,0,0.4,0.4,0,0,1
202,4,5wmvql69,1.44,70,0,1,1,0,1,0,1,0,1,I read the instructions,32,Male,Master,"Working (part-time, full-time, self-employed)",3,2,Not at all,4.966666667,11.68333333,0.42510699,22,26,202,4,26,0,10,3,Human,1,3,1,1,0,0,0,1,0,1,H<D=AI,6,9,-7,0,0,7,0,0,0,0.7,0.7,0,0,0
203,4,5wmvql69,1.44,70,0,1,1,0,1,0,1,0,1,I read the instructions,32,Male,Master,"Working (part-time, full-time, self-employed)",3,2,Not at all,4.966666667,11.68333333,0.42510699,22,26,203,4,27,0,1,9,Human,1,9,0,0,0,0,0,0,1,1,AI<H<D,10,10,8,1,1,1,0,1,1,0.8,8,0,0,0
204,4,5wmvql69,1.44,70,0,1,1,0,1,0,1,0,1,I read the instructions,32,Male,Master,"Working (part-time, full-time, self-employed)",3,2,Not at all,4.966666667,11.68333333,0.42510699,22,26,204,4,28,0,14,13,AI,0,14,1,0,0,1,1,0,0,0,D<H<AI,2,20,-1,0,3,4,0,0,1,0.1,0.071428571,0,0,0
205,4,5wmvql69,1.44,70,0,1,1,0,1,0,1,0,1,I read the instructions,32,Male,Master,"Working (part-time, full-time, self-employed)",3,2,Not at all,4.966666667,11.68333333,0.42510699,22,26,205,4,29,0,12,9,Human,1,9,0,0,0,0,1,0,0,0,H<D<AI,8,10,-3,1,1,1,0,1,1,0.3,0.25,0,0,0
206,4,5wmvql69,1.44,70,0,1,1,0,1,0,1,0,1,I read the instructions,32,Male,Master,"Working (part-time, full-time, self-employed)",3,2,Not at all,4.966666667,11.68333333,0.42510699,22,26,206,4,30,0,14,16,AI,0,14,1,0,1,0,0,0,1,0,D<AI<H,1,10,2,0,4,4,0,1,0,0.2,0.142857143,0,0,0
207,4,5wmvql69,1.44,70,0,1,1,0,1,0,1,0,1,I read the instructions,32,Male,Master,"Working (part-time, full-time, self-employed)",3,2,Not at all,4.966666667,11.68333333,0.42510699,22,26,207,4,31,0,6,7,Human,1,7,0,0,0,0,0,0,1,0,AI<H<D,10,18,1,1,3,3,0,1,1,0.1,0.166666667,0,0,0
208,4,5wmvql69,1.44,70,0,1,1,0,1,0,1,0,1,I read the instructions,32,Male,Master,"Working (part-time, full-time, self-employed)",3,2,Not at all,4.966666667,11.68333333,0.42510699,22,26,208,4,32,0,26,20,AI,0,26,0,0,0,0,0,1,0,1,D<H<AI,2,10,-6,1,10,16,0,0,1,0.6,0.230769231,0,0,0
209,4,5wmvql69,1.44,70,0,1,1,0,1,0,1,0,1,I read the instructions,32,Male,Master,"Working (part-time, full-time, self-employed)",3,2,Not at all,4.966666667,11.68333333,0.42510699,22,26,209,5,33,0,10,12,Human,1,12,0,0,0,0,0,0,1,0,D=AI<H,4,19,2,1,0,2,0,0,0,0.2,0.2,0,0,1
210,4,5wmvql69,1.44,70,0,1,1,0,1,0,1,0,1,I read the instructions,32,Male,Master,"Working (part-time, full-time, self-employed)",3,2,Not at all,4.966666667,11.68333333,0.42510699,22,26,210,5,34,0,17,15,AI,0,17,1,0,0,1,1,0,0,0,D<H<AI,2,19,-2,0,5,7,0,0,1,0.2,0.117647059,0,0,0
211,4,5wmvql69,1.44,70,0,1,1,0,1,0,1,0,1,I read the instructions,32,Male,Master,"Working (part-time, full-time, self-employed)",3,2,Not at all,4.966666667,11.68333333,0.42510699,22,26,211,5,35,0,6,2,AI,0,6,1,0,0,1,1,0,0,0,H<AI<D,7,10,-4,0,4,4,0,1,0,0.4,0.666666667,0,0,0
212,4,5wmvql69,1.44,70,0,1,1,0,1,0,1,0,1,I read the instructions,32,Male,Master,"Working (part-time, full-time, self-employed)",3,2,Not at all,4.966666667,11.68333333,0.42510699,22,26,212,5,36,0,8,15,Human,1,15,0,0,0,0,0,0,1,1,AI<D<H,3,7,7,0,2,5,0,0,0,0.7,0.875,0,0,0
213,4,5wmvql69,1.44,70,0,1,1,0,1,0,1,0,1,I read the instructions,32,Male,Master,"Working (part-time, full-time, self-employed)",3,2,Not at all,4.966666667,11.68333333,0.42510699,22,26,213,5,37,0,12,23,Human,1,23,0,0,0,0,0,0,1,1,D<AI<H,1,13,11,0,2,13,0,0,0,1.1,0.916666667,0,0,0
214,4,5wmvql69,1.44,70,0,1,1,0,1,0,1,0,1,I read the instructions,32,Male,Master,"Working (part-time, full-time, self-employed)",3,2,Not at all,4.966666667,11.68333333,0.42510699,22,26,214,5,38,0,19,11,AI,0,19,0,0,0,0,0,1,0,1,D<H<AI,2,9,-8,1,1,9,0,0,1,0.8,0.421052632,0,0,0
215,4,5wmvql69,1.44,70,0,1,1,0,1,0,1,0,1,I read the instructions,32,Male,Master,"Working (part-time, full-time, self-employed)",3,2,Not at all,4.966666667,11.68333333,0.42510699,22,26,215,5,39,0,8,11,Human,1,11,0,0,0,0,0,0,1,0,AI<D<H,3,7,3,0,1,1,0,1,1,0.3,0.375,0,0,0
216,4,5wmvql69,1.44,70,0,1,1,0,1,0,1,0,1,I read the instructions,32,Male,Master,"Working (part-time, full-time, self-employed)",3,2,Not at all,4.966666667,11.68333333,0.42510699,22,26,216,5,40,0,13,24,Human,1,24,0,0,0,0,0,0,1,1,D<AI<H,1,20,11,1,3,14,0,0,0,1.1,0.846153846,0,0,0
217,4,5wmvql69,1.44,70,0,1,1,0,1,0,1,0,1,I read the instructions,32,Male,Master,"Working (part-time, full-time, self-employed)",3,2,Not at all,4.966666667,11.68333333,0.42510699,22,26,217,6,41,0,17,9,AI,0,17,0,0,0,0,0,1,0,1,H<D<AI,8,10,-8,1,1,7,0,0,1,0.8,0.470588235,0,1,1
218,4,5wmvql69,1.44,70,0,1,1,0,1,0,1,0,1,I read the instructions,32,Male,Master,"Working (part-time, full-time, self-employed)",3,2,Not at all,4.966666667,11.68333333,0.42510699,22,26,218,6,42,0,9,12,Human,1,12,0,0,0,0,0,0,1,0,AI<D<H,3,10,3,0,1,2,0,0,0,0.3,0.333333333,0,1,0
219,4,5wmvql69,1.44,70,0,1,1,0,1,0,1,0,1,I read the instructions,32,Male,Master,"Working (part-time, full-time, self-employed)",3,2,Not at all,4.966666667,11.68333333,0.42510699,22,26,219,6,43,0,3,6,Human,1,6,0,0,0,0,0,0,1,0,AI<H<D,10,10,3,1,4,4,0,1,1,0.3,1,0,1,0
220,4,5wmvql69,1.44,70,0,1,1,0,1,0,1,0,1,I read the instructions,32,Male,Master,"Working (part-time, full-time, self-employed)",3,2,Not at all,4.966666667,11.68333333,0.42510699,22,26,220,6,44,0,7,14,Human,1,14,0,0,0,0,0,0,1,1,AI<D<H,3,10,7,0,3,4,0,0,0,0.7,1,0,1,0
221,4,5wmvql69,1.44,70,0,1,1,0,1,0,1,0,1,I read the instructions,32,Male,Master,"Working (part-time, full-time, self-employed)",3,2,Not at all,4.966666667,11.68333333,0.42510699,22,26,221,6,45,0,20,14,AI,0,20,0,0,0,0,0,1,0,1,D<H<AI,2,22,-6,0,4,10,0,0,1,0.6,0.3,0,1,0
222,4,5wmvql69,1.44,70,0,1,1,0,1,0,1,0,1,I read the instructions,32,Male,Master,"Working (part-time, full-time, self-employed)",3,2,Not at all,4.966666667,11.68333333,0.42510699,22,26,222,6,46,0,10,6,AI,0,10,1,0,0,1,1,0,0,0,H<D=AI,6,11,-4,0,0,0,0,1,0,0.4,0.4,0,1,0
223,4,5wmvql69,1.44,70,0,1,1,0,1,0,1,0,1,I read the instructions,32,Male,Master,"Working (part-time, full-time, self-employed)",3,2,Not at all,4.966666667,11.68333333,0.42510699,22,26,223,6,47,0,6,12,Human,1,12,0,0,0,0,0,0,1,1,AI<D<H,3,7,6,0,2,2,0,1,1,0.6,1,0,1,0
224,4,5wmvql69,1.44,70,0,1,1,0,1,0,1,0,1,I read the instructions,32,Male,Master,"Working (part-time, full-time, self-employed)",3,2,Not at all,4.966666667,11.68333333,0.42510699,22,26,224,6,48,0,12,4,Human,1,4,1,1,0,0,0,1,0,1,H<D<AI,8,1,-8,1,2,6,0,0,0,0.8,0.666666667,0,1,0
225,5,jftv98ec,2.82,60,0,0,1,1,1,1,0,-1,1,I read the instructions,25,Male,Bachelor,"Working (part-time, full-time, self-employed)",2,2,Not at all,17.55,25.58333333,0.685993485,24,24,225,0,a,1,11,17,AI,0,11,1,0,1,0,0,0,1,1,D<AI<H,1,10,6,0,1,1,0,1,0,0.6,0.545454545,0,0,0
226,5,jftv98ec,2.82,60,0,0,1,1,1,1,0,-1,1,I read the instructions,25,Male,Bachelor,"Working (part-time, full-time, self-employed)",2,2,Not at all,17.55,25.58333333,0.685993485,24,24,226,0,b,1,15,12,Human,1,12,0,0,0,0,1,0,0,0,D<H<AI,2,7,-3,1,2,2,0,1,1,0.3,0.2,0,0,0
227,5,jftv98ec,2.82,60,0,0,1,1,1,1,0,-1,1,I read the instructions,25,Male,Bachelor,"Working (part-time, full-time, self-employed)",2,2,Not at all,17.55,25.58333333,0.685993485,24,24,227,0,c,1,9,11,Human,1,11,0,0,0,0,0,0,1,0,AI<D<H,3,12,2,1,1,1,1,0,0,0.2,0.222222222,0,0,0
228,5,jftv98ec,2.82,60,0,0,1,1,1,1,0,-1,1,I read the instructions,25,Male,Bachelor,"Working (part-time, full-time, self-employed)",2,2,Not at all,17.55,25.58333333,0.685993485,24,24,228,0,d,1,17,11,Human,1,11,1,1,0,0,0,1,0,1,D<H<AI,2,15,-6,0,1,1,0,1,1,0.6,0.352941176,0,0,0
229,5,jftv98ec,2.82,60,0,0,1,1,1,1,0,-1,1,I read the instructions,25,Male,Bachelor,"Working (part-time, full-time, self-employed)",2,2,Not at all,17.55,25.58333333,0.685993485,24,24,229,0,e,1,10,13,AI,0,10,1,0,1,0,0,0,1,0,D=AI<H,4,7,3,0,0,0,0,1,0,0.3,0.3,0,0,0
230,5,jftv98ec,2.82,60,0,0,1,1,1,1,0,-1,1,I read the instructions,25,Male,Bachelor,"Working (part-time, full-time, self-employed)",2,2,Not at all,17.55,25.58333333,0.685993485,24,24,230,0,f,1,17,10,Human,1,10,1,1,0,0,0,1,0,1,D=H<AI,5,11,-7,1,0,0,0,1,1,0.7,0.411764706,0,0,0
231,5,jftv98ec,2.82,60,0,0,1,1,1,1,0,-1,1,I read the instructions,25,Male,Bachelor,"Working (part-time, full-time, self-employed)",2,2,Not at all,17.55,25.58333333,0.685993485,24,24,231,0,g,1,12,18,AI,0,12,1,0,1,0,0,0,1,1,D<AI<H,1,16,6,1,2,2,0,1,0,0.6,0.5,0,0,0
232,5,jftv98ec,2.82,60,0,0,1,1,1,1,0,-1,1,I read the instructions,25,Male,Bachelor,"Working (part-time, full-time, self-employed)",2,2,Not at all,17.55,25.58333333,0.685993485,24,24,232,0,h,1,10,9,AI,0,10,1,0,0,1,1,0,0,0,H<D=AI,6,15,-1,0,0,0,0,1,0,0.1,0.1,0,0,0
233,5,jftv98ec,2.82,60,0,0,1,1,1,1,0,-1,1,I read the instructions,25,Male,Bachelor,"Working (part-time, full-time, self-employed)",2,2,Not at all,17.55,25.58333333,0.685993485,24,24,233,1,1,0,8,4,AI,0,8,1,0,0,1,1,0,0,0,H<AI<D,7,5,-4,1,2,2,0,1,0,0.4,0.5,1,0,1
234,5,jftv98ec,2.82,60,0,0,1,1,1,1,0,-1,1,I read the instructions,25,Male,Bachelor,"Working (part-time, full-time, self-employed)",2,2,Not at all,17.55,25.58333333,0.685993485,24,24,234,1,2,0,15,9,Human,1,9,1,1,0,0,0,1,0,1,H<D<AI,8,11,-6,1,1,1,0,1,1,0.6,0.4,1,0,0
235,5,jftv98ec,2.82,60,0,0,1,1,1,1,0,-1,1,I read the instructions,25,Male,Bachelor,"Working (part-time, full-time, self-employed)",2,2,Not at all,17.55,25.58333333,0.685993485,24,24,235,1,3,0,7,10,Human,1,10,0,0,0,0,0,0,1,0,AI<D=H,9,8,3,0,0,0,0,1,1,0.3,0.428571429,1,0,0
236,5,jftv98ec,2.82,60,0,0,1,1,1,1,0,-1,1,I read the instructions,25,Male,Bachelor,"Working (part-time, full-time, self-employed)",2,2,Not at all,17.55,25.58333333,0.685993485,24,24,236,1,4,0,14,24,AI,0,14,1,0,1,0,0,0,1,1,D<AI<H,1,15,10,0,4,4,0,1,0,1,0.714285714,1,0,0
237,5,jftv98ec,2.82,60,0,0,1,1,1,1,0,-1,1,I read the instructions,25,Male,Bachelor,"Working (part-time, full-time, self-employed)",2,2,Not at all,17.55,25.58333333,0.685993485,24,24,237,1,5,0,7,4,AI,0,7,1,0,0,1,1,0,0,0,H<AI<D,7,6,-3,0,3,3,0,1,0,0.3,0.428571429,1,0,0
238,5,jftv98ec,2.82,60,0,0,1,1,1,1,0,-1,1,I read the instructions,25,Male,Bachelor,"Working (part-time, full-time, self-employed)",2,2,Not at all,17.55,25.58333333,0.685993485,24,24,238,1,6,0,13,19,AI,0,13,1,0,1,0,0,0,1,1,D<AI<H,1,5,6,0,3,3,0,1,0,0.6,0.461538462,1,0,0
239,5,jftv98ec,2.82,60,0,0,1,1,1,1,0,-1,1,I read the instructions,25,Male,Bachelor,"Working (part-time, full-time, self-employed)",2,2,Not at all,17.55,25.58333333,0.685993485,24,24,239,1,7,0,6,14,Human,1,14,0,0,0,0,0,0,1,1,AI<D<H,3,17,8,1,4,4,1,0,0,0.8,1.333333333,1,0,0
240,5,jftv98ec,2.82,60,0,0,1,1,1,1,0,-1,1,I read the instructions,25,Male,Bachelor,"Working (part-time, full-time, self-employed)",2,2,Not at all,17.55,25.58333333,0.685993485,24,24,240,1,8,0,26,17,Human,1,17,1,1,0,0,0,1,0,1,D<H<AI,2,10,-9,1,7,7,0,1,1,0.9,0.346153846,1,0,0
241,5,jftv98ec,2.82,60,0,0,1,1,1,1,0,-1,1,I read the instructions,25,Male,Bachelor,"Working (part-time, full-time, self-employed)",2,2,Not at all,17.55,25.58333333,0.685993485,24,24,241,2,9,0,12,8,AI,0,12,1,0,0,1,1,0,0,0,H<D<AI,8,17,-4,0,2,2,1,0,0,0.4,0.333333333,0,0,1
242,5,jftv98ec,2.82,60,0,0,1,1,1,1,0,-1,1,I read the instructions,25,Male,Bachelor,"Working (part-time, full-time, self-employed)",2,2,Not at all,17.55,25.58333333,0.685993485,24,24,242,2,10,0,18,26,AI,0,18,1,0,1,0,0,0,1,1,D<AI<H,1,10,8,0,8,8,0,1,0,0.8,0.444444444,0,0,0
243,5,jftv98ec,2.82,60,0,0,1,1,1,1,0,-1,1,I read the instructions,25,Male,Bachelor,"Working (part-time, full-time, self-employed)",2,2,Not at all,17.55,25.58333333,0.685993485,24,24,243,2,11,0,17,14,AI,0,17,1,0,0,1,1,0,0,0,D<H<AI,2,10,-3,1,4,7,0,0,1,0.3,0.176470588,0,0,0
244,5,jftv98ec,2.82,60,0,0,1,1,1,1,0,-1,1,I read the instructions,25,Male,Bachelor,"Working (part-time, full-time, self-employed)",2,2,Not at all,17.55,25.58333333,0.685993485,24,24,244,2,12,0,10,8,AI,0,10,1,0,0,1,1,0,0,0,H<D=AI,6,4,-2,1,0,0,0,1,0,0.2,0.2,0,0,0
245,5,jftv98ec,2.82,60,0,0,1,1,1,1,0,-1,1,I read the instructions,25,Male,Bachelor,"Working (part-time, full-time, self-employed)",2,2,Not at all,17.55,25.58333333,0.685993485,24,24,245,2,13,0,14,17,Human,1,17,0,0,0,0,0,0,1,0,D<AI<H,1,10,3,0,4,7,0,0,0,0.3,0.214285714,0,0,0
246,5,jftv98ec,2.82,60,0,0,1,1,1,1,0,-1,1,I read the instructions,25,Male,Bachelor,"Working (part-time, full-time, self-employed)",2,2,Not at all,17.55,25.58333333,0.685993485,24,24,246,2,14,0,9,16,AI,0,9,1,0,1,0,0,0,1,1,AI<D<H,3,6,7,0,1,1,0,1,0,0.7,0.777777778,0,0,0
247,5,jftv98ec,2.82,60,0,0,1,1,1,1,0,-1,1,I read the instructions,25,Male,Bachelor,"Working (part-time, full-time, self-employed)",2,2,Not at all,17.55,25.58333333,0.685993485,24,24,247,2,15,0,14,11,Human,1,11,0,0,0,0,1,0,0,0,D<H<AI,2,13,-3,0,1,1,0,1,1,0.3,0.214285714,0,0,0
248,5,jftv98ec,2.82,60,0,0,1,1,1,1,0,-1,1,I read the instructions,25,Male,Bachelor,"Working (part-time, full-time, self-employed)",2,2,Not at all,17.55,25.58333333,0.685993485,24,24,248,2,16,0,4,7,Human,1,7,0,0,0,0,0,0,1,0,AI<H<D,10,6,3,1,3,3,0,1,1,0.3,0.75,0,0,0
249,5,jftv98ec,2.82,60,0,0,1,1,1,1,0,-1,1,I read the instructions,25,Male,Bachelor,"Working (part-time, full-time, self-employed)",2,2,Not at all,17.55,25.58333333,0.685993485,24,24,249,3,17,0,13,4,AI,0,13,0,0,0,0,0,1,0,1,H<D<AI,8,7,-9,1,3,3,0,1,0,0.9,0.692307692,0,0,1
250,5,jftv98ec,2.82,60,0,0,1,1,1,1,0,-1,1,I read the instructions,25,Male,Bachelor,"Working (part-time, full-time, self-employed)",2,2,Not at all,17.55,25.58333333,0.685993485,24,24,250,3,18,0,5,9,Human,1,9,0,0,0,0,0,0,1,0,AI<H<D,10,6,4,0,1,1,0,1,1,0.4,0.8,0,0,0
251,5,jftv98ec,2.82,60,0,0,1,1,1,1,0,-1,1,I read the instructions,25,Male,Bachelor,"Working (part-time, full-time, self-employed)",2,2,Not at all,17.55,25.58333333,0.685993485,24,24,251,3,19,0,8,12,Human,1,12,0,0,0,0,0,0,1,0,AI<D<H,3,5,4,0,2,2,1,0,0,0.4,0.5,0,0,0
252,5,jftv98ec,2.82,60,0,0,1,1,1,1,0,-1,1,I read the instructions,25,Male,Bachelor,"Working (part-time, full-time, self-employed)",2,2,Not at all,17.55,25.58333333,0.685993485,24,24,252,3,20,0,14,7,Human,1,7,1,1,0,0,0,1,0,1,H<D<AI,8,9,-7,1,3,3,0,1,1,0.7,0.5,0,0,0
253,5,jftv98ec,2.82,60,0,0,1,1,1,1,0,-1,1,I read the instructions,25,Male,Bachelor,"Working (part-time, full-time, self-employed)",2,2,Not at all,17.55,25.58333333,0.685993485,24,24,253,3,21,0,12,21,AI,0,12,1,0,1,0,0,0,1,1,D<AI<H,1,10,9,0,2,2,0,1,0,0.9,0.75,0,0,0
254,5,jftv98ec,2.82,60,0,0,1,1,1,1,0,-1,1,I read the instructions,25,Male,Bachelor,"Working (part-time, full-time, self-employed)",2,2,Not at all,17.55,25.58333333,0.685993485,24,24,254,3,22,0,11,8,AI,0,11,1,0,0,1,1,0,0,0,H<D<AI,8,12,-3,0,1,1,0,1,0,0.3,0.272727273,0,0,0
255,5,jftv98ec,2.82,60,0,0,1,1,1,1,0,-1,1,I read the instructions,25,Male,Bachelor,"Working (part-time, full-time, self-employed)",2,2,Not at all,17.55,25.58333333,0.685993485,24,24,255,3,23,0,24,17,Human,1,17,1,1,0,0,0,1,0,1,D<H<AI,2,14,-7,1,7,7,0,1,1,0.7,0.291666667,0,0,0
256,5,jftv98ec,2.82,60,0,0,1,1,1,1,0,-1,1,I read the instructions,25,Male,Bachelor,"Working (part-time, full-time, self-employed)",2,2,Not at all,17.55,25.58333333,0.685993485,24,24,256,3,24,0,16,3,AI,0,16,0,0,0,0,0,1,0,1,H<D<AI,8,5,-13,1,6,6,0,1,0,1.3,0.8125,0,0,0
257,5,jftv98ec,2.82,60,0,0,1,1,1,1,0,-1,1,I read the instructions,25,Male,Bachelor,"Working (part-time, full-time, self-employed)",2,2,Not at all,17.55,25.58333333,0.685993485,24,24,257,4,25,0,10,14,AI,0,10,1,0,1,0,0,0,1,0,D=AI<H,4,13,4,1,0,0,0,1,0,0.4,0.4,0,0,1
258,5,jftv98ec,2.82,60,0,0,1,1,1,1,0,-1,1,I read the instructions,25,Male,Bachelor,"Working (part-time, full-time, self-employed)",2,2,Not at all,17.55,25.58333333,0.685993485,24,24,258,4,26,0,10,3,AI,0,10,0,0,0,0,0,1,0,1,H<D=AI,6,9,-7,0,0,0,0,1,0,0.7,0.7,0,0,0
259,5,jftv98ec,2.82,60,0,0,1,1,1,1,0,-1,1,I read the instructions,25,Male,Bachelor,"Working (part-time, full-time, self-employed)",2,2,Not at all,17.55,25.58333333,0.685993485,24,24,259,4,27,0,1,9,Human,1,9,0,0,0,0,0,0,1,1,AI<H<D,10,10,8,1,1,1,0,1,1,0.8,8,0,0,0
260,5,jftv98ec,2.82,60,0,0,1,1,1,1,0,-1,1,I read the instructions,25,Male,Bachelor,"Working (part-time, full-time, self-employed)",2,2,Not at all,17.55,25.58333333,0.685993485,24,24,260,4,28,0,14,13,Human,1,13,0,0,0,0,1,0,0,0,D<H<AI,2,20,-1,0,3,3,0,1,1,0.1,0.071428571,0,0,0
261,5,jftv98ec,2.82,60,0,0,1,1,1,1,0,-1,1,I read the instructions,25,Male,Bachelor,"Working (part-time, full-time, self-employed)",2,2,Not at all,17.55,25.58333333,0.685993485,24,24,261,4,29,0,12,9,Human,1,9,0,0,0,0,1,0,0,0,H<D<AI,8,10,-3,1,1,1,0,1,1,0.3,0.25,0,0,0
262,5,jftv98ec,2.82,60,0,0,1,1,1,1,0,-1,1,I read the instructions,25,Male,Bachelor,"Working (part-time, full-time, self-employed)",2,2,Not at all,17.55,25.58333333,0.685993485,24,24,262,4,30,0,14,16,AI,0,14,1,0,1,0,0,0,1,0,D<AI<H,1,10,2,0,4,4,0,1,0,0.2,0.142857143,0,0,0
263,5,jftv98ec,2.82,60,0,0,1,1,1,1,0,-1,1,I read the instructions,25,Male,Bachelor,"Working (part-time, full-time, self-employed)",2,2,Not at all,17.55,25.58333333,0.685993485,24,24,263,4,31,0,6,7,Human,1,7,0,0,0,0,0,0,1,0,AI<H<D,10,18,1,1,3,3,0,1,1,0.1,0.166666667,0,0,0
264,5,jftv98ec,2.82,60,0,0,1,1,1,1,0,-1,1,I read the instructions,25,Male,Bachelor,"Working (part-time, full-time, self-employed)",2,2,Not at all,17.55,25.58333333,0.685993485,24,24,264,4,32,0,26,20,Human,1,20,1,1,0,0,0,1,0,1,D<H<AI,2,10,-6,1,10,10,0,1,1,0.6,0.230769231,0,0,0
265,5,jftv98ec,2.82,60,0,0,1,1,1,1,0,-1,1,I read the instructions,25,Male,Bachelor,"Working (part-time, full-time, self-employed)",2,2,Not at all,17.55,25.58333333,0.685993485,24,24,265,5,33,0,10,12,AI,0,10,1,0,1,0,0,0,1,0,D=AI<H,4,19,2,1,0,0,0,1,0,0.2,0.2,0,0,1
266,5,jftv98ec,2.82,60,0,0,1,1,1,1,0,-1,1,I read the instructions,25,Male,Bachelor,"Working (part-time, full-time, self-employed)",2,2,Not at all,17.55,25.58333333,0.685993485,24,24,266,5,34,0,17,15,Human,1,15,0,0,0,0,1,0,0,0,D<H<AI,2,19,-2,0,5,5,0,1,1,0.2,0.117647059,0,0,0
267,5,jftv98ec,2.82,60,0,0,1,1,1,1,0,-1,1,I read the instructions,25,Male,Bachelor,"Working (part-time, full-time, self-employed)",2,2,Not at all,17.55,25.58333333,0.685993485,24,24,267,5,35,0,6,2,AI,0,6,1,0,0,1,1,0,0,0,H<AI<D,7,10,-4,0,4,4,0,1,0,0.4,0.666666667,0,0,0
268,5,jftv98ec,2.82,60,0,0,1,1,1,1,0,-1,1,I read the instructions,25,Male,Bachelor,"Working (part-time, full-time, self-employed)",2,2,Not at all,17.55,25.58333333,0.685993485,24,24,268,5,36,0,8,15,AI,0,8,1,0,1,0,0,0,1,1,AI<D<H,3,7,7,0,2,2,0,1,0,0.7,0.875,0,0,0
269,5,jftv98ec,2.82,60,0,0,1,1,1,1,0,-1,1,I read the instructions,25,Male,Bachelor,"Working (part-time, full-time, self-employed)",2,2,Not at all,17.55,25.58333333,0.685993485,24,24,269,5,37,0,12,23,AI,0,12,1,0,1,0,0,0,1,1,D<AI<H,1,13,11,0,2,2,0,1,0,1.1,0.916666667,0,0,0
270,5,jftv98ec,2.82,60,0,0,1,1,1,1,0,-1,1,I read the instructions,25,Male,Bachelor,"Working (part-time, full-time, self-employed)",2,2,Not at all,17.55,25.58333333,0.685993485,24,24,270,5,38,0,19,11,Human,1,11,1,1,0,0,0,1,0,1,D<H<AI,2,9,-8,1,1,1,0,1,1,0.8,0.421052632,0,0,0
271,5,jftv98ec,2.82,60,0,0,1,1,1,1,0,-1,1,I read the instructions,25,Male,Bachelor,"Working (part-time, full-time, self-employed)",2,2,Not at all,17.55,25.58333333,0.685993485,24,24,271,5,39,0,8,11,Human,1,11,0,0,0,0,0,0,1,0,AI<D<H,3,7,3,0,1,1,0,1,1,0.3,0.375,0,0,0
272,5,jftv98ec,2.82,60,0,0,1,1,1,1,0,-1,1,I read the instructions,25,Male,Bachelor,"Working (part-time, full-time, self-employed)",2,2,Not at all,17.55,25.58333333,0.685993485,24,24,272,5,40,0,13,24,AI,0,13,1,0,1,0,0,0,1,1,D<AI<H,1,20,11,1,3,3,0,1,0,1.1,0.846153846,0,0,0
273,5,jftv98ec,2.82,60,0,0,1,1,1,1,0,-1,1,I read the instructions,25,Male,Bachelor,"Working (part-time, full-time, self-employed)",2,2,Not at all,17.55,25.58333333,0.685993485,24,24,273,6,41,0,17,9,Human,1,9,1,1,0,0,0,1,0,1,H<D<AI,8,10,-8,1,1,1,0,1,1,0.8,0.470588235,0,1,1
274,5,jftv98ec,2.82,60,0,0,1,1,1,1,0,-1,1,I read the instructions,25,Male,Bachelor,"Working (part-time, full-time, self-employed)",2,2,Not at all,17.55,25.58333333,0.685993485,24,24,274,6,42,0,9,12,AI,0,9,1,0,1,0,0,0,1,0,AI<D<H,3,10,3,0,1,1,0,1,0,0.3,0.333333333,0,1,0
275,5,jftv98ec,2.82,60,0,0,1,1,1,1,0,-1,1,I read the instructions,25,Male,Bachelor,"Working (part-time, full-time, self-employed)",2,2,Not at all,17.55,25.58333333,0.685993485,24,24,275,6,43,0,3,6,Human,1,6,0,0,0,0,0,0,1,0,AI<H<D,10,10,3,1,4,4,0,1,1,0.3,1,0,1,0
276,5,jftv98ec,2.82,60,0,0,1,1,1,1,0,-1,1,I read the instructions,25,Male,Bachelor,"Working (part-time, full-time, self-employed)",2,2,Not at all,17.55,25.58333333,0.685993485,24,24,276,6,44,0,7,14,Human,1,14,0,0,0,0,0,0,1,1,AI<D<H,3,10,7,0,3,4,0,0,0,0.7,1,0,1,0
277,5,jftv98ec,2.82,60,0,0,1,1,1,1,0,-1,1,I read the instructions,25,Male,Bachelor,"Working (part-time, full-time, self-employed)",2,2,Not at all,17.55,25.58333333,0.685993485,24,24,277,6,45,0,20,14,Human,1,14,1,1,0,0,0,1,0,1,D<H<AI,2,22,-6,0,4,4,0,1,1,0.6,0.3,0,1,0
278,5,jftv98ec,2.82,60,0,0,1,1,1,1,0,-1,1,I read the instructions,25,Male,Bachelor,"Working (part-time, full-time, self-employed)",2,2,Not at all,17.55,25.58333333,0.685993485,24,24,278,6,46,0,10,6,AI,0,10,1,0,0,1,1,0,0,0,H<D=AI,6,11,-4,0,0,0,0,1,0,0.4,0.4,0,1,0
279,5,jftv98ec,2.82,60,0,0,1,1,1,1,0,-1,1,I read the instructions,25,Male,Bachelor,"Working (part-time, full-time, self-employed)",2,2,Not at all,17.55,25.58333333,0.685993485,24,24,279,6,47,0,6,12,Human,1,12,0,0,0,0,0,0,1,1,AI<D<H,3,7,6,0,2,2,0,1,1,0.6,1,0,1,0
280,5,jftv98ec,2.82,60,0,0,1,1,1,1,0,-1,1,I read the instructions,25,Male,Bachelor,"Working (part-time, full-time, self-employed)",2,2,Not at all,17.55,25.58333333,0.685993485,24,24,280,6,48,0,12,4,AI,0,12,0,0,0,0,0,1,0,1,H<D<AI,8,1,-8,1,2,2,0,1,0,0.8,0.666666667,0,1,0
281,6,dnayia2f,2.68,60,1,1,2,2,0,1,2,1,1,read the instruction,33,Male,Bachelor,"Working (part-time, full-time, self-employed)",3,3,A few times,31.61666667,45.41666667,0.696146789,19,29,281,0,a,1,11,17,Human,1,17,0,0,0,0,0,0,1,1,D<AI<H,1,10,6,0,1,7,0,0,0,0.6,0.545454545,0,0,0
282,6,dnayia2f,2.68,60,1,1,2,2,0,1,2,1,1,read the instruction,33,Male,Bachelor,"Working (part-time, full-time, self-employed)",3,3,A few times,31.61666667,45.41666667,0.696146789,19,29,282,0,b,1,15,12,AI,0,15,1,0,0,1,1,0,0,0,D<H<AI,2,7,-3,1,2,5,0,0,1,0.3,0.2,0,0,0
283,6,dnayia2f,2.68,60,1,1,2,2,0,1,2,1,1,read the instruction,33,Male,Bachelor,"Working (part-time, full-time, self-employed)",3,3,A few times,31.61666667,45.41666667,0.696146789,19,29,283,0,c,1,9,11,Human,1,11,0,0,0,0,0,0,1,0,AI<D<H,3,12,2,1,1,1,1,0,0,0.2,0.222222222,0,0,0
284,6,dnayia2f,2.68,60,1,1,2,2,0,1,2,1,1,read the instruction,33,Male,Bachelor,"Working (part-time, full-time, self-employed)",3,3,A few times,31.61666667,45.41666667,0.696146789,19,29,284,0,d,1,17,11,AI,0,17,0,0,0,0,0,1,0,1,D<H<AI,2,15,-6,0,1,7,0,0,1,0.6,0.352941176,0,0,0
285,6,dnayia2f,2.68,60,1,1,2,2,0,1,2,1,1,read the instruction,33,Male,Bachelor,"Working (part-time, full-time, self-employed)",3,3,A few times,31.61666667,45.41666667,0.696146789,19,29,285,0,e,1,10,13,Human,1,13,0,0,0,0,0,0,1,0,D=AI<H,4,7,3,0,0,3,0,0,0,0.3,0.3,0,0,0
286,6,dnayia2f,2.68,60,1,1,2,2,0,1,2,1,1,read the instruction,33,Male,Bachelor,"Working (part-time, full-time, self-employed)",3,3,A few times,31.61666667,45.41666667,0.696146789,19,29,286,0,f,1,17,10,AI,0,17,0,0,0,0,0,1,0,1,D=H<AI,5,11,-7,1,0,7,0,0,1,0.7,0.411764706,0,0,0
287,6,dnayia2f,2.68,60,1,1,2,2,0,1,2,1,1,read the instruction,33,Male,Bachelor,"Working (part-time, full-time, self-employed)",3,3,A few times,31.61666667,45.41666667,0.696146789,19,29,287,0,g,1,12,18,Human,1,18,0,0,0,0,0,0,1,1,D<AI<H,1,16,6,1,2,8,0,0,0,0.6,0.5,0,0,0
288,6,dnayia2f,2.68,60,1,1,2,2,0,1,2,1,1,read the instruction,33,Male,Bachelor,"Working (part-time, full-time, self-employed)",3,3,A few times,31.61666667,45.41666667,0.696146789,19,29,288,0,h,1,10,9,AI,0,10,1,0,0,1,1,0,0,0,H<D=AI,6,15,-1,0,0,0,0,1,0,0.1,0.1,0,0,0
289,6,dnayia2f,2.68,60,1,1,2,2,0,1,2,1,1,read the instruction,33,Male,Bachelor,"Working (part-time, full-time, self-employed)",3,3,A few times,31.61666667,45.41666667,0.696146789,19,29,289,1,1,0,8,4,Human,1,4,0,0,0,0,1,0,0,0,H<AI<D,7,5,-4,1,2,6,0,0,0,0.4,0.5,1,0,1
290,6,dnayia2f,2.68,60,1,1,2,2,0,1,2,1,1,read the instruction,33,Male,Bachelor,"Working (part-time, full-time, self-employed)",3,3,A few times,31.61666667,45.41666667,0.696146789,19,29,290,1,2,0,15,9,Human,1,9,1,1,0,0,0,1,0,1,H<D<AI,8,11,-6,1,1,1,0,1,1,0.6,0.4,1,0,0
291,6,dnayia2f,2.68,60,1,1,2,2,0,1,2,1,1,read the instruction,33,Male,Bachelor,"Working (part-time, full-time, self-employed)",3,3,A few times,31.61666667,45.41666667,0.696146789,19,29,291,1,3,0,7,10,AI,0,7,1,0,1,0,0,0,1,0,AI<D=H,9,8,3,0,0,3,0,0,1,0.3,0.428571429,1,0,0
292,6,dnayia2f,2.68,60,1,1,2,2,0,1,2,1,1,read the instruction,33,Male,Bachelor,"Working (part-time, full-time, self-employed)",3,3,A few times,31.61666667,45.41666667,0.696146789,19,29,292,1,4,0,14,24,AI,0,14,1,0,1,0,0,0,1,1,D<AI<H,1,15,10,0,4,4,0,1,0,1,0.714285714,1,0,0
293,6,dnayia2f,2.68,60,1,1,2,2,0,1,2,1,1,read the instruction,33,Male,Bachelor,"Working (part-time, full-time, self-employed)",3,3,A few times,31.61666667,45.41666667,0.696146789,19,29,293,1,5,0,7,4,Human,1,4,0,0,0,0,1,0,0,0,H<AI<D,7,6,-3,0,3,6,0,0,0,0.3,0.428571429,1,0,0
294,6,dnayia2f,2.68,60,1,1,2,2,0,1,2,1,1,read the instruction,33,Male,Bachelor,"Working (part-time, full-time, self-employed)",3,3,A few times,31.61666667,45.41666667,0.696146789,19,29,294,1,6,0,13,19,AI,0,13,1,0,1,0,0,0,1,1,D<AI<H,1,5,6,0,3,3,0,1,0,0.6,0.461538462,1,0,0
295,6,dnayia2f,2.68,60,1,1,2,2,0,1,2,1,1,read the instruction,33,Male,Bachelor,"Working (part-time, full-time, self-employed)",3,3,A few times,31.61666667,45.41666667,0.696146789,19,29,295,1,7,0,6,14,AI,0,6,1,0,1,0,0,0,1,1,AI<D<H,3,17,8,1,4,4,1,0,0,0.8,1.333333333,1,0,0
296,6,dnayia2f,2.68,60,1,1,2,2,0,1,2,1,1,read the instruction,33,Male,Bachelor,"Working (part-time, full-time, self-employed)",3,3,A few times,31.61666667,45.41666667,0.696146789,19,29,296,1,8,0,26,17,Human,1,17,1,1,0,0,0,1,0,1,D<H<AI,2,10,-9,1,7,7,0,1,1,0.9,0.346153846,1,0,0
297,6,dnayia2f,2.68,60,1,1,2,2,0,1,2,1,1,read the instruction,33,Male,Bachelor,"Working (part-time, full-time, self-employed)",3,3,A few times,31.61666667,45.41666667,0.696146789,19,29,297,2,9,0,12,8,Human,1,8,0,0,0,0,1,0,0,0,H<D<AI,8,17,-4,0,2,2,1,0,0,0.4,0.333333333,0,0,1
298,6,dnayia2f,2.68,60,1,1,2,2,0,1,2,1,1,read the instruction,33,Male,Bachelor,"Working (part-time, full-time, self-employed)",3,3,A few times,31.61666667,45.41666667,0.696146789,19,29,298,2,10,0,18,26,AI,0,18,1,0,1,0,0,0,1,1,D<AI<H,1,10,8,0,8,8,0,1,0,0.8,0.444444444,0,0,0
299,6,dnayia2f,2.68,60,1,1,2,2,0,1,2,1,1,read the instruction,33,Male,Bachelor,"Working (part-time, full-time, self-employed)",3,3,A few times,31.61666667,45.41666667,0.696146789,19,29,299,2,11,0,17,14,Human,1,14,0,0,0,0,1,0,0,0,D<H<AI,2,10,-3,1,4,4,0,1,1,0.3,0.176470588,0,0,0
300,6,dnayia2f,2.68,60,1,1,2,2,0,1,2,1,1,read the instruction,33,Male,Bachelor,"Working (part-time, full-time, self-employed)",3,3,A few times,31.61666667,45.41666667,0.696146789,19,29,300,2,12,0,10,8,Human,1,8,0,0,0,0,1,0,0,0,H<D=AI,6,4,-2,1,0,2,0,0,0,0.2,0.2,0,0,0
301,6,dnayia2f,2.68,60,1,1,2,2,0,1,2,1,1,read the instruction,33,Male,Bachelor,"Working (part-time, full-time, self-employed)",3,3,A few times,31.61666667,45.41666667,0.696146789,19,29,301,2,13,0,14,17,AI,0,14,1,0,1,0,0,0,1,0,D<AI<H,1,10,3,0,4,4,0,1,0,0.3,0.214285714,0,0,0
302,6,dnayia2f,2.68,60,1,1,2,2,0,1,2,1,1,read the instruction,33,Male,Bachelor,"Working (part-time, full-time, self-employed)",3,3,A few times,31.61666667,45.41666667,0.696146789,19,29,302,2,14,0,9,16,AI,0,9,1,0,1,0,0,0,1,1,AI<D<H,3,6,7,0,1,1,0,1,0,0.7,0.777777778,0,0,0
303,6,dnayia2f,2.68,60,1,1,2,2,0,1,2,1,1,read the instruction,33,Male,Bachelor,"Working (part-time, full-time, self-employed)",3,3,A few times,31.61666667,45.41666667,0.696146789,19,29,303,2,15,0,14,11,Human,1,11,0,0,0,0,1,0,0,0,D<H<AI,2,13,-3,0,1,1,0,1,1,0.3,0.214285714,0,0,0
304,6,dnayia2f,2.68,60,1,1,2,2,0,1,2,1,1,read the instruction,33,Male,Bachelor,"Working (part-time, full-time, self-employed)",3,3,A few times,31.61666667,45.41666667,0.696146789,19,29,304,2,16,0,4,7,AI,0,4,1,0,1,0,0,0,1,0,AI<H<D,10,6,3,1,3,6,0,0,1,0.3,0.75,0,0,0
305,6,dnayia2f,2.68,60,1,1,2,2,0,1,2,1,1,read the instruction,33,Male,Bachelor,"Working (part-time, full-time, self-employed)",3,3,A few times,31.61666667,45.41666667,0.696146789,19,29,305,3,17,0,13,4,Human,1,4,1,1,0,0,0,1,0,1,H<D<AI,8,7,-9,1,3,6,0,0,0,0.9,0.692307692,0,0,1
306,6,dnayia2f,2.68,60,1,1,2,2,0,1,2,1,1,read the instruction,33,Male,Bachelor,"Working (part-time, full-time, self-employed)",3,3,A few times,31.61666667,45.41666667,0.696146789,19,29,306,3,18,0,5,9,Human,1,9,0,0,0,0,0,0,1,0,AI<H<D,10,6,4,0,1,1,0,1,1,0.4,0.8,0,0,0
307,6,dnayia2f,2.68,60,1,1,2,2,0,1,2,1,1,read the instruction,33,Male,Bachelor,"Working (part-time, full-time, self-employed)",3,3,A few times,31.61666667,45.41666667,0.696146789,19,29,307,3,19,0,8,12,AI,0,8,1,0,1,0,0,0,1,0,AI<D<H,3,5,4,0,2,2,1,0,0,0.4,0.5,0,0,0
308,6,dnayia2f,2.68,60,1,1,2,2,0,1,2,1,1,read the instruction,33,Male,Bachelor,"Working (part-time, full-time, self-employed)",3,3,A few times,31.61666667,45.41666667,0.696146789,19,29,308,3,20,0,14,7,Human,1,7,1,1,0,0,0,1,0,1,H<D<AI,8,9,-7,1,3,3,0,1,1,0.7,0.5,0,0,0
309,6,dnayia2f,2.68,60,1,1,2,2,0,1,2,1,1,read the instruction,33,Male,Bachelor,"Working (part-time, full-time, self-employed)",3,3,A few times,31.61666667,45.41666667,0.696146789,19,29,309,3,21,0,12,21,AI,0,12,1,0,1,0,0,0,1,1,D<AI<H,1,10,9,0,2,2,0,1,0,0.9,0.75,0,0,0
310,6,dnayia2f,2.68,60,1,1,2,2,0,1,2,1,1,read the instruction,33,Male,Bachelor,"Working (part-time, full-time, self-employed)",3,3,A few times,31.61666667,45.41666667,0.696146789,19,29,310,3,22,0,11,8,Human,1,8,0,0,0,0,1,0,0,0,H<D<AI,8,12,-3,0,1,2,0,0,0,0.3,0.272727273,0,0,0
311,6,dnayia2f,2.68,60,1,1,2,2,0,1,2,1,1,read the instruction,33,Male,Bachelor,"Working (part-time, full-time, self-employed)",3,3,A few times,31.61666667,45.41666667,0.696146789,19,29,311,3,23,0,24,17,Human,1,17,1,1,0,0,0,1,0,1,D<H<AI,2,14,-7,1,7,7,0,1,1,0.7,0.291666667,0,0,0
312,6,dnayia2f,2.68,60,1,1,2,2,0,1,2,1,1,read the instruction,33,Male,Bachelor,"Working (part-time, full-time, self-employed)",3,3,A few times,31.61666667,45.41666667,0.696146789,19,29,312,3,24,0,16,3,Human,1,3,1,1,0,0,0,1,0,1,H<D<AI,8,5,-13,1,6,7,0,0,0,1.3,0.8125,0,0,0
313,6,dnayia2f,2.68,60,1,1,2,2,0,1,2,1,1,read the instruction,33,Male,Bachelor,"Working (part-time, full-time, self-employed)",3,3,A few times,31.61666667,45.41666667,0.696146789,19,29,313,4,25,0,10,14,AI,0,10,1,0,1,0,0,0,1,0,D=AI<H,4,13,4,1,0,0,0,1,0,0.4,0.4,0,0,1
314,6,dnayia2f,2.68,60,1,1,2,2,0,1,2,1,1,read the instruction,33,Male,Bachelor,"Working (part-time, full-time, self-employed)",3,3,A few times,31.61666667,45.41666667,0.696146789,19,29,314,4,26,0,10,3,Human,1,3,1,1,0,0,0,1,0,1,H<D=AI,6,9,-7,0,0,7,0,0,0,0.7,0.7,0,0,0
315,6,dnayia2f,2.68,60,1,1,2,2,0,1,2,1,1,read the instruction,33,Male,Bachelor,"Working (part-time, full-time, self-employed)",3,3,A few times,31.61666667,45.41666667,0.696146789,19,29,315,4,27,0,1,9,AI,0,1,1,0,1,0,0,0,1,1,AI<H<D,10,10,8,1,1,9,0,0,1,0.8,8,0,0,0
316,6,dnayia2f,2.68,60,1,1,2,2,0,1,2,1,1,read the instruction,33,Male,Bachelor,"Working (part-time, full-time, self-employed)",3,3,A few times,31.61666667,45.41666667,0.696146789,19,29,316,4,28,0,14,13,Human,1,13,0,0,0,0,1,0,0,0,D<H<AI,2,20,-1,0,3,3,0,1,1,0.1,0.071428571,0,0,0
317,6,dnayia2f,2.68,60,1,1,2,2,0,1,2,1,1,read the instruction,33,Male,Bachelor,"Working (part-time, full-time, self-employed)",3,3,A few times,31.61666667,45.41666667,0.696146789,19,29,317,4,29,0,12,9,Human,1,9,0,0,0,0,1,0,0,0,H<D<AI,8,10,-3,1,1,1,0,1,1,0.3,0.25,0,0,0
318,6,dnayia2f,2.68,60,1,1,2,2,0,1,2,1,1,read the instruction,33,Male,Bachelor,"Working (part-time, full-time, self-employed)",3,3,A few times,31.61666667,45.41666667,0.696146789,19,29,318,4,30,0,14,16,AI,0,14,1,0,1,0,0,0,1,0,D<AI<H,1,10,2,0,4,4,0,1,0,0.2,0.142857143,0,0,0
319,6,dnayia2f,2.68,60,1,1,2,2,0,1,2,1,1,read the instruction,33,Male,Bachelor,"Working (part-time, full-time, self-employed)",3,3,A few times,31.61666667,45.41666667,0.696146789,19,29,319,4,31,0,6,7,AI,0,6,1,0,1,0,0,0,1,0,AI<H<D,10,18,1,1,3,4,0,0,1,0.1,0.166666667,0,0,0
320,6,dnayia2f,2.68,60,1,1,2,2,0,1,2,1,1,read the instruction,33,Male,Bachelor,"Working (part-time, full-time, self-employed)",3,3,A few times,31.61666667,45.41666667,0.696146789,19,29,320,4,32,0,26,20,Human,1,20,1,1,0,0,0,1,0,1,D<H<AI,2,10,-6,1,10,10,0,1,1,0.6,0.230769231,0,0,0
321,6,dnayia2f,2.68,60,1,1,2,2,0,1,2,1,1,read the instruction,33,Male,Bachelor,"Working (part-time, full-time, self-employed)",3,3,A few times,31.61666667,45.41666667,0.696146789,19,29,321,5,33,0,10,12,AI,0,10,1,0,1,0,0,0,1,0,D=AI<H,4,19,2,1,0,0,0,1,0,0.2,0.2,0,0,1
322,6,dnayia2f,2.68,60,1,1,2,2,0,1,2,1,1,read the instruction,33,Male,Bachelor,"Working (part-time, full-time, self-employed)",3,3,A few times,31.61666667,45.41666667,0.696146789,19,29,322,5,34,0,17,15,Human,1,15,0,0,0,0,1,0,0,0,D<H<AI,2,19,-2,0,5,5,0,1,1,0.2,0.117647059,0,0,0
323,6,dnayia2f,2.68,60,1,1,2,2,0,1,2,1,1,read the instruction,33,Male,Bachelor,"Working (part-time, full-time, self-employed)",3,3,A few times,31.61666667,45.41666667,0.696146789,19,29,323,5,35,0,6,2,Human,1,2,0,0,0,0,1,0,0,0,H<AI<D,7,10,-4,0,4,8,0,0,0,0.4,0.666666667,0,0,0
324,6,dnayia2f,2.68,60,1,1,2,2,0,1,2,1,1,read the instruction,33,Male,Bachelor,"Working (part-time, full-time, self-employed)",3,3,A few times,31.61666667,45.41666667,0.696146789,19,29,324,5,36,0,8,15,Human,1,15,0,0,0,0,0,0,1,1,AI<D<H,3,7,7,0,2,5,0,0,0,0.7,0.875,0,0,0
325,6,dnayia2f,2.68,60,1,1,2,2,0,1,2,1,1,read the instruction,33,Male,Bachelor,"Working (part-time, full-time, self-employed)",3,3,A few times,31.61666667,45.41666667,0.696146789,19,29,325,5,37,0,12,23,AI,0,12,1,0,1,0,0,0,1,1,D<AI<H,1,13,11,0,2,2,0,1,0,1.1,0.916666667,0,0,0
326,6,dnayia2f,2.68,60,1,1,2,2,0,1,2,1,1,read the instruction,33,Male,Bachelor,"Working (part-time, full-time, self-employed)",3,3,A few times,31.61666667,45.41666667,0.696146789,19,29,326,5,38,0,19,11,Human,1,11,1,1,0,0,0,1,0,1,D<H<AI,2,9,-8,1,1,1,0,1,1,0.8,0.421052632,0,0,0
327,6,dnayia2f,2.68,60,1,1,2,2,0,1,2,1,1,read the instruction,33,Male,Bachelor,"Working (part-time, full-time, self-employed)",3,3,A few times,31.61666667,45.41666667,0.696146789,19,29,327,5,39,0,8,11,Human,1,11,0,0,0,0,0,0,1,0,AI<D<H,3,7,3,0,1,1,0,1,1,0.3,0.375,0,0,0
328,6,dnayia2f,2.68,60,1,1,2,2,0,1,2,1,1,read the instruction,33,Male,Bachelor,"Working (part-time, full-time, self-employed)",3,3,A few times,31.61666667,45.41666667,0.696146789,19,29,328,5,40,0,13,24,AI,0,13,1,0,1,0,0,0,1,1,D<AI<H,1,20,11,1,3,3,0,1,0,1.1,0.846153846,0,0,0
329,6,dnayia2f,2.68,60,1,1,2,2,0,1,2,1,1,read the instruction,33,Male,Bachelor,"Working (part-time, full-time, self-employed)",3,3,A few times,31.61666667,45.41666667,0.696146789,19,29,329,6,41,0,17,9,Human,1,9,1,1,0,0,0,1,0,1,H<D<AI,8,10,-8,1,1,1,0,1,1,0.8,0.470588235,0,1,1
330,6,dnayia2f,2.68,60,1,1,2,2,0,1,2,1,1,read the instruction,33,Male,Bachelor,"Working (part-time, full-time, self-employed)",3,3,A few times,31.61666667,45.41666667,0.696146789,19,29,330,6,42,0,9,12,AI,0,9,1,0,1,0,0,0,1,0,AI<D<H,3,10,3,0,1,1,0,1,0,0.3,0.333333333,0,1,0
331,6,dnayia2f,2.68,60,1,1,2,2,0,1,2,1,1,read the instruction,33,Male,Bachelor,"Working (part-time, full-time, self-employed)",3,3,A few times,31.61666667,45.41666667,0.696146789,19,29,331,6,43,0,3,6,Human,1,6,0,0,0,0,0,0,1,0,AI<H<D,10,10,3,1,4,4,0,1,1,0.3,1,0,1,0
332,6,dnayia2f,2.68,60,1,1,2,2,0,1,2,1,1,read the instruction,33,Male,Bachelor,"Working (part-time, full-time, self-employed)",3,3,A few times,31.61666667,45.41666667,0.696146789,19,29,332,6,44,0,7,14,Human,1,14,0,0,0,0,0,0,1,1,AI<D<H,3,10,7,0,3,4,0,0,0,0.7,1,0,1,0
333,6,dnayia2f,2.68,60,1,1,2,2,0,1,2,1,1,read the instruction,33,Male,Bachelor,"Working (part-time, full-time, self-employed)",3,3,A few times,31.61666667,45.41666667,0.696146789,19,29,333,6,45,0,20,14,Human,1,14,1,1,0,0,0,1,0,1,D<H<AI,2,22,-6,0,4,4,0,1,1,0.6,0.3,0,1,0
334,6,dnayia2f,2.68,60,1,1,2,2,0,1,2,1,1,read the instruction,33,Male,Bachelor,"Working (part-time, full-time, self-employed)",3,3,A few times,31.61666667,45.41666667,0.696146789,19,29,334,6,46,0,10,6,Human,1,6,0,0,0,0,1,0,0,0,H<D=AI,6,11,-4,0,0,4,0,0,0,0.4,0.4,0,1,0
335,6,dnayia2f,2.68,60,1,1,2,2,0,1,2,1,1,read the instruction,33,Male,Bachelor,"Working (part-time, full-time, self-employed)",3,3,A few times,31.61666667,45.41666667,0.696146789,19,29,335,6,47,0,6,12,AI,0,6,1,0,1,0,0,0,1,1,AI<D<H,3,7,6,0,2,4,0,0,1,0.6,1,0,1,0
336,6,dnayia2f,2.68,60,1,1,2,2,0,1,2,1,1,read the instruction,33,Male,Bachelor,"Working (part-time, full-time, self-employed)",3,3,A few times,31.61666667,45.41666667,0.696146789,19,29,336,6,48,0,12,4,Human,1,4,1,1,0,0,0,1,0,1,H<D<AI,8,1,-8,1,2,6,0,0,0,0.8,0.666666667,0,1,0
337,7,l6aefei0,2.42,60,1,0,1,2,2,1,1,0,2,I read the instructions,30,Female,Bachelor,"Working (part-time, full-time, self-employed)",1,3,Not at all,9.45,20.76666667,0.45505618,25,23,337,0,a,1,11,17,Human,1,17,0,0,0,0,0,0,1,1,D<AI<H,1,10,6,0,1,7,0,0,0,0.6,0.545454545,0,0,0
338,7,l6aefei0,2.42,60,1,0,1,2,2,1,1,0,2,I read the instructions,30,Female,Bachelor,"Working (part-time, full-time, self-employed)",1,3,Not at all,9.45,20.76666667,0.45505618,25,23,338,0,b,1,15,12,AI,0,15,1,0,0,1,1,0,0,0,D<H<AI,2,7,-3,1,2,5,0,0,1,0.3,0.2,0,0,0
339,7,l6aefei0,2.42,60,1,0,1,2,2,1,1,0,2,I read the instructions,30,Female,Bachelor,"Working (part-time, full-time, self-employed)",1,3,Not at all,9.45,20.76666667,0.45505618,25,23,339,0,c,1,9,11,AI,0,9,1,0,1,0,0,0,1,0,AI<D<H,3,12,2,1,1,1,1,0,0,0.2,0.222222222,0,0,0
340,7,l6aefei0,2.42,60,1,0,1,2,2,1,1,0,2,I read the instructions,30,Female,Bachelor,"Working (part-time, full-time, self-employed)",1,3,Not at all,9.45,20.76666667,0.45505618,25,23,340,0,d,1,17,11,Human,1,11,1,1,0,0,0,1,0,1,D<H<AI,2,15,-6,0,1,1,0,1,1,0.6,0.352941176,0,0,0
341,7,l6aefei0,2.42,60,1,0,1,2,2,1,1,0,2,I read the instructions,30,Female,Bachelor,"Working (part-time, full-time, self-employed)",1,3,Not at all,9.45,20.76666667,0.45505618,25,23,341,0,e,1,10,13,AI,0,10,1,0,1,0,0,0,1,0,D=AI<H,4,7,3,0,0,0,0,1,0,0.3,0.3,0,0,0
342,7,l6aefei0,2.42,60,1,0,1,2,2,1,1,0,2,I read the instructions,30,Female,Bachelor,"Working (part-time, full-time, self-employed)",1,3,Not at all,9.45,20.76666667,0.45505618,25,23,342,0,f,1,17,10,Human,1,10,1,1,0,0,0,1,0,1,D=H<AI,5,11,-7,1,0,0,0,1,1,0.7,0.411764706,0,0,0
343,7,l6aefei0,2.42,60,1,0,1,2,2,1,1,0,2,I read the instructions,30,Female,Bachelor,"Working (part-time, full-time, self-employed)",1,3,Not at all,9.45,20.76666667,0.45505618,25,23,343,0,g,1,12,18,Human,1,18,0,0,0,0,0,0,1,1,D<AI<H,1,16,6,1,2,8,0,0,0,0.6,0.5,0,0,0
344,7,l6aefei0,2.42,60,1,0,1,2,2,1,1,0,2,I read the instructions,30,Female,Bachelor,"Working (part-time, full-time, self-employed)",1,3,Not at all,9.45,20.76666667,0.45505618,25,23,344,0,h,1,10,9,Human,1,9,0,0,0,0,1,0,0,0,H<D=AI,6,15,-1,0,0,1,0,0,0,0.1,0.1,0,0,0
345,7,l6aefei0,2.42,60,1,0,1,2,2,1,1,0,2,I read the instructions,30,Female,Bachelor,"Working (part-time, full-time, self-employed)",1,3,Not at all,9.45,20.76666667,0.45505618,25,23,345,1,1,0,8,4,AI,0,8,1,0,0,1,1,0,0,0,H<AI<D,7,5,-4,1,2,2,0,1,0,0.4,0.5,1,0,1
346,7,l6aefei0,2.42,60,1,0,1,2,2,1,1,0,2,I read the instructions,30,Female,Bachelor,"Working (part-time, full-time, self-employed)",1,3,Not at all,9.45,20.76666667,0.45505618,25,23,346,1,2,0,15,9,AI,0,15,0,0,0,0,0,1,0,1,H<D<AI,8,11,-6,1,1,5,0,0,1,0.6,0.4,1,0,0
347,7,l6aefei0,2.42,60,1,0,1,2,2,1,1,0,2,I read the instructions,30,Female,Bachelor,"Working (part-time, full-time, self-employed)",1,3,Not at all,9.45,20.76666667,0.45505618,25,23,347,1,3,0,7,10,Human,1,10,0,0,0,0,0,0,1,0,AI<D=H,9,8,3,0,0,0,0,1,1,0.3,0.428571429,1,0,0
348,7,l6aefei0,2.42,60,1,0,1,2,2,1,1,0,2,I read the instructions,30,Female,Bachelor,"Working (part-time, full-time, self-employed)",1,3,Not at all,9.45,20.76666667,0.45505618,25,23,348,1,4,0,14,24,Human,1,24,0,0,0,0,0,0,1,1,D<AI<H,1,15,10,0,4,14,0,0,0,1,0.714285714,1,0,0
349,7,l6aefei0,2.42,60,1,0,1,2,2,1,1,0,2,I read the instructions,30,Female,Bachelor,"Working (part-time, full-time, self-employed)",1,3,Not at all,9.45,20.76666667,0.45505618,25,23,349,1,5,0,7,4,AI,0,7,1,0,0,1,1,0,0,0,H<AI<D,7,6,-3,0,3,3,0,1,0,0.3,0.428571429,1,0,0
350,7,l6aefei0,2.42,60,1,0,1,2,2,1,1,0,2,I read the instructions,30,Female,Bachelor,"Working (part-time, full-time, self-employed)",1,3,Not at all,9.45,20.76666667,0.45505618,25,23,350,1,6,0,13,19,Human,1,19,0,0,0,0,0,0,1,1,D<AI<H,1,5,6,0,3,9,0,0,0,0.6,0.461538462,1,0,0
351,7,l6aefei0,2.42,60,1,0,1,2,2,1,1,0,2,I read the instructions,30,Female,Bachelor,"Working (part-time, full-time, self-employed)",1,3,Not at all,9.45,20.76666667,0.45505618,25,23,351,1,7,0,6,14,Human,1,14,0,0,0,0,0,0,1,1,AI<D<H,3,17,8,1,4,4,1,0,0,0.8,1.333333333,1,0,0
352,7,l6aefei0,2.42,60,1,0,1,2,2,1,1,0,2,I read the instructions,30,Female,Bachelor,"Working (part-time, full-time, self-employed)",1,3,Not at all,9.45,20.76666667,0.45505618,25,23,352,1,8,0,26,17,AI,0,26,0,0,0,0,0,1,0,1,D<H<AI,2,10,-9,1,7,16,0,0,1,0.9,0.346153846,1,0,0
353,7,l6aefei0,2.42,60,1,0,1,2,2,1,1,0,2,I read the instructions,30,Female,Bachelor,"Working (part-time, full-time, self-employed)",1,3,Not at all,9.45,20.76666667,0.45505618,25,23,353,2,9,0,12,8,Human,1,8,0,0,0,0,1,0,0,0,H<D<AI,8,17,-4,0,2,2,1,0,0,0.4,0.333333333,0,0,1
354,7,l6aefei0,2.42,60,1,0,1,2,2,1,1,0,2,I read the instructions,30,Female,Bachelor,"Working (part-time, full-time, self-employed)",1,3,Not at all,9.45,20.76666667,0.45505618,25,23,354,2,10,0,18,26,AI,0,18,1,0,1,0,0,0,1,1,D<AI<H,1,10,8,0,8,8,0,1,0,0.8,0.444444444,0,0,0
355,7,l6aefei0,2.42,60,1,0,1,2,2,1,1,0,2,I read the instructions,30,Female,Bachelor,"Working (part-time, full-time, self-employed)",1,3,Not at all,9.45,20.76666667,0.45505618,25,23,355,2,11,0,17,14,Human,1,14,0,0,0,0,1,0,0,0,D<H<AI,2,10,-3,1,4,4,0,1,1,0.3,0.176470588,0,0,0
356,7,l6aefei0,2.42,60,1,0,1,2,2,1,1,0,2,I read the instructions,30,Female,Bachelor,"Working (part-time, full-time, self-employed)",1,3,Not at all,9.45,20.76666667,0.45505618,25,23,356,2,12,0,10,8,Human,1,8,0,0,0,0,1,0,0,0,H<D=AI,6,4,-2,1,0,2,0,0,0,0.2,0.2,0,0,0
357,7,l6aefei0,2.42,60,1,0,1,2,2,1,1,0,2,I read the instructions,30,Female,Bachelor,"Working (part-time, full-time, self-employed)",1,3,Not at all,9.45,20.76666667,0.45505618,25,23,357,2,13,0,14,17,AI,0,14,1,0,1,0,0,0,1,0,D<AI<H,1,10,3,0,4,4,0,1,0,0.3,0.214285714,0,0,0
358,7,l6aefei0,2.42,60,1,0,1,2,2,1,1,0,2,I read the instructions,30,Female,Bachelor,"Working (part-time, full-time, self-employed)",1,3,Not at all,9.45,20.76666667,0.45505618,25,23,358,2,14,0,9,16,AI,0,9,1,0,1,0,0,0,1,1,AI<D<H,3,6,7,0,1,1,0,1,0,0.7,0.777777778,0,0,0
359,7,l6aefei0,2.42,60,1,0,1,2,2,1,1,0,2,I read the instructions,30,Female,Bachelor,"Working (part-time, full-time, self-employed)",1,3,Not at all,9.45,20.76666667,0.45505618,25,23,359,2,15,0,14,11,Human,1,11,0,0,0,0,1,0,0,0,D<H<AI,2,13,-3,0,1,1,0,1,1,0.3,0.214285714,0,0,0
360,7,l6aefei0,2.42,60,1,0,1,2,2,1,1,0,2,I read the instructions,30,Female,Bachelor,"Working (part-time, full-time, self-employed)",1,3,Not at all,9.45,20.76666667,0.45505618,25,23,360,2,16,0,4,7,AI,0,4,1,0,1,0,0,0,1,0,AI<H<D,10,6,3,1,3,6,0,0,1,0.3,0.75,0,0,0
361,7,l6aefei0,2.42,60,1,0,1,2,2,1,1,0,2,I read the instructions,30,Female,Bachelor,"Working (part-time, full-time, self-employed)",1,3,Not at all,9.45,20.76666667,0.45505618,25,23,361,3,17,0,13,4,Human,1,4,1,1,0,0,0,1,0,1,H<D<AI,8,7,-9,1,3,6,0,0,0,0.9,0.692307692,0,0,1
362,7,l6aefei0,2.42,60,1,0,1,2,2,1,1,0,2,I read the instructions,30,Female,Bachelor,"Working (part-time, full-time, self-employed)",1,3,Not at all,9.45,20.76666667,0.45505618,25,23,362,3,18,0,5,9,AI,0,5,1,0,1,0,0,0,1,0,AI<H<D,10,6,4,0,1,5,0,0,1,0.4,0.8,0,0,0
363,7,l6aefei0,2.42,60,1,0,1,2,2,1,1,0,2,I read the instructions,30,Female,Bachelor,"Working (part-time, full-time, self-employed)",1,3,Not at all,9.45,20.76666667,0.45505618,25,23,363,3,19,0,8,12,AI,0,8,1,0,1,0,0,0,1,0,AI<D<H,3,5,4,0,2,2,1,0,0,0.4,0.5,0,0,0
364,7,l6aefei0,2.42,60,1,0,1,2,2,1,1,0,2,I read the instructions,30,Female,Bachelor,"Working (part-time, full-time, self-employed)",1,3,Not at all,9.45,20.76666667,0.45505618,25,23,364,3,20,0,14,7,Human,1,7,1,1,0,0,0,1,0,1,H<D<AI,8,9,-7,1,3,3,0,1,1,0.7,0.5,0,0,0
365,7,l6aefei0,2.42,60,1,0,1,2,2,1,1,0,2,I read the instructions,30,Female,Bachelor,"Working (part-time, full-time, self-employed)",1,3,Not at all,9.45,20.76666667,0.45505618,25,23,365,3,21,0,12,21,AI,0,12,1,0,1,0,0,0,1,1,D<AI<H,1,10,9,0,2,2,0,1,0,0.9,0.75,0,0,0
366,7,l6aefei0,2.42,60,1,0,1,2,2,1,1,0,2,I read the instructions,30,Female,Bachelor,"Working (part-time, full-time, self-employed)",1,3,Not at all,9.45,20.76666667,0.45505618,25,23,366,3,22,0,11,8,Human,1,8,0,0,0,0,1,0,0,0,H<D<AI,8,12,-3,0,1,2,0,0,0,0.3,0.272727273,0,0,0
367,7,l6aefei0,2.42,60,1,0,1,2,2,1,1,0,2,I read the instructions,30,Female,Bachelor,"Working (part-time, full-time, self-employed)",1,3,Not at all,9.45,20.76666667,0.45505618,25,23,367,3,23,0,24,17,AI,0,24,0,0,0,0,0,1,0,1,D<H<AI,2,14,-7,1,7,14,0,0,1,0.7,0.291666667,0,0,0
368,7,l6aefei0,2.42,60,1,0,1,2,2,1,1,0,2,I read the instructions,30,Female,Bachelor,"Working (part-time, full-time, self-employed)",1,3,Not at all,9.45,20.76666667,0.45505618,25,23,368,3,24,0,16,3,AI,0,16,0,0,0,0,0,1,0,1,H<D<AI,8,5,-13,1,6,6,0,1,0,1.3,0.8125,0,0,0
369,7,l6aefei0,2.42,60,1,0,1,2,2,1,1,0,2,I read the instructions,30,Female,Bachelor,"Working (part-time, full-time, self-employed)",1,3,Not at all,9.45,20.76666667,0.45505618,25,23,369,4,25,0,10,14,Human,1,14,0,0,0,0,0,0,1,0,D=AI<H,4,13,4,1,0,4,0,0,0,0.4,0.4,0,0,1
370,7,l6aefei0,2.42,60,1,0,1,2,2,1,1,0,2,I read the instructions,30,Female,Bachelor,"Working (part-time, full-time, self-employed)",1,3,Not at all,9.45,20.76666667,0.45505618,25,23,370,4,26,0,10,3,AI,0,10,0,0,0,0,0,1,0,1,H<D=AI,6,9,-7,0,0,0,0,1,0,0.7,0.7,0,0,0
371,7,l6aefei0,2.42,60,1,0,1,2,2,1,1,0,2,I read the instructions,30,Female,Bachelor,"Working (part-time, full-time, self-employed)",1,3,Not at all,9.45,20.76666667,0.45505618,25,23,371,4,27,0,1,9,Human,1,9,0,0,0,0,0,0,1,1,AI<H<D,10,10,8,1,1,1,0,1,1,0.8,8,0,0,0
372,7,l6aefei0,2.42,60,1,0,1,2,2,1,1,0,2,I read the instructions,30,Female,Bachelor,"Working (part-time, full-time, self-employed)",1,3,Not at all,9.45,20.76666667,0.45505618,25,23,372,4,28,0,14,13,Human,1,13,0,0,0,0,1,0,0,0,D<H<AI,2,20,-1,0,3,3,0,1,1,0.1,0.071428571,0,0,0
373,7,l6aefei0,2.42,60,1,0,1,2,2,1,1,0,2,I read the instructions,30,Female,Bachelor,"Working (part-time, full-time, self-employed)",1,3,Not at all,9.45,20.76666667,0.45505618,25,23,373,4,29,0,12,9,AI,0,12,1,0,0,1,1,0,0,0,H<D<AI,8,10,-3,1,1,2,0,0,1,0.3,0.25,0,0,0
